"trial_type","trial_index","time_elapsed","internal_node_id","rt","responses","success","stimulus","key_press","cond","enc_response","condition","correct_response","correct","rec_response","targ_old","targ_sim","targ_new","lure_old","lure_sim","lure_new","foil_old","foil_sim","foil_new","recognition_ratio","ldi"
"pavlovia","0","3","0.0-0.0","","","","","","","","","","","","","","","","","","","","","",""
"survey-multi-choice","1","2825","0.0-1.0","2819.5999999046326","{""Q0"":""Igen"",""Q1"":""Igen""}","","","","","","","","","","","","","","","","","","","",""
"survey-text","2","19551","0.0-2.0-0.0","16724","{""Q0"":""093503""}","","","","","","","","","","","","","","","","","","","",""
"fullscreen","3","21471","0.0-2.0-1.0","","","true","","","","","","","","","","","","","","","","","","",""
"html-keyboard-response","4","28821","0.0-2.0-2.0","7348.399999856949","","","<p>Üdvözöljük! Ez a feladat két részből áll, és összesen 10-15 percet vesz igénybe.</p>","32","","","","","","","","","","","","","","","","",""
"html-keyboard-response","5","46260","0.0-2.0-3.0-0.0","17436.900000095367","","","<p>Az első részben tárgyakat lát majd a képernyőn, egymás után fognak megjelenni.<br>Az Ön feladata eldönteni, hogy a tárgyak <i>beltéri vagy kültéri</i> tárgyak-e.</p>						   <p>Amennyiben a tárgyat általában beltéren látja, nyomja le a <b>C</b> billentyűt. Amennyiben a tárgyat általában kültéren látja, nyomja le az <b>M</b> billentyűt.</p>						   <p>Ebben a feladatban nincsen mindig egyértelműen jó megoldás. Válaszoljon legjobb tudása szerint. A válaszadásra 2 másodperce lesz.","32","","","","","","","","","","","","","","","","",""
"html-keyboard-response","6","48262","0.0-2.0-3.0-1.0","null","","","<p>Kezdődik a gyakorlás...</p>","null","","","","","","","","","","","","","","","","",""
"image-keyboard-response","7","50266","0.0-2.0-4.0-0.0","1178.0999999046326","","","stimuli/Set_2_rs/165b.jpg","77","-","outdoor","","","","","","","","","","","","","","",""
"html-keyboard-response","8","52867","0.0-2.0-4.0-1.0","2099.699999809265","","","<p>Az Ön válasza:</p><p>Kültéri.</p>","32","","","","","","","","","","","","","","","","",""
"image-keyboard-response","9","54870","0.0-2.0-4.0-0.1","846","","","stimuli/Set_2_rs/034a.jpg","67","-","indoor","","","","","","","","","","","","","","",""
"html-keyboard-response","10","56067","0.0-2.0-4.0-1.1","696","","","<p>Az Ön válasza:</p><p>Beltéri.</p>","32","","","","","","","","","","","","","","","","",""
"image-keyboard-response","11","58070","0.0-2.0-4.0-0.2","990.7999999523163","","","stimuli/Set_2_rs/049a.jpg","77","SL","outdoor","","","","","","","","","","","","","","",""
"html-keyboard-response","12","59731","0.0-2.0-4.0-1.2","1158.8000001907349","","","<p>Az Ön válasza:</p><p>Kültéri.</p>","32","","","","","","","","","","","","","","","","",""
"image-keyboard-response","13","61734","0.0-2.0-4.0-0.3","910.2000000476837","","","stimuli/Set_2_rs/028a.jpg","67","SR","indoor","","","","","","","","","","","","","","",""
"html-keyboard-response","14","63171","0.0-2.0-4.0-1.3","935.8000001907349","","","<p>Az Ön válasza:</p><p>Beltéri.</p>","32","","","","","","","","","","","","","","","","",""
"image-keyboard-response","15","65175","0.0-2.0-4.0-0.4","894.5","","","stimuli/Set_2_rs/135a.jpg","67","SL","indoor","","","","","","","","","","","","","","",""
"html-keyboard-response","16","66403","0.0-2.0-4.0-1.4","727.2999999523163","","","<p>Az Ön válasza:</p><p>Beltéri.</p>","32","","","","","","","","","","","","","","","","",""
"image-keyboard-response","17","68406","0.0-2.0-4.0-0.5","942.4000000953674","","","stimuli/Set_2_rs/137a.jpg","67","SR","indoor","","","","","","","","","","","","","","",""
"html-keyboard-response","18","69539","0.0-2.0-4.0-1.5","631.2000000476837","","","<p>Az Ön válasza:</p><p>Beltéri.</p>","32","","","","","","","","","","","","","","","","",""
"html-keyboard-response","19","77171","0.0-2.0-5.0-0.0","7631.200000047684","","","<p>Ez volt a gyakorlás. A feladat következik. A feladat alatt már nem kap visszajelzést.</p>","32","","","","","","","","","","","","","","","","",""
"html-keyboard-response","20","79172","0.0-2.0-5.0-1.0","null","","","<p>Kezdődik a feladat...</p>","null","","","","","","","","","","","","","","","","",""
"image-keyboard-response","21","81675","0.0-2.0-6.0-0.0","1164.6000001430511","","","stimuli/Set_1_rs/157a.jpg","67","","indoor","SR","","","","","","","","","","","","","",""
"image-keyboard-response","22","84177","0.0-2.0-6.0-0.1","854.7999999523163","","","stimuli/Set_1_rs/009a.jpg","67","","indoor","SR","","","","","","","","","","","","","",""
"image-keyboard-response","23","86679","0.0-2.0-6.0-0.2","1312.5","","","stimuli/Set_1_rs/059a.jpg","67","","indoor","SL","","","","","","","","","","","","","",""
"image-keyboard-response","24","89180","0.0-2.0-6.0-0.3","1227.2000000476837","","","stimuli/Set_1_rs/024a.jpg","67","","indoor","SR","","","","","","","","","","","","","",""
"image-keyboard-response","25","91683","0.0-2.0-6.0-0.4","852.7000000476837","","","stimuli/Set_1_rs/101a.jpg","67","","indoor","SL","","","","","","","","","","","","","",""
"image-keyboard-response","26","94185","0.0-2.0-6.0-0.5","1118.3999998569489","","","stimuli/Set_1_rs/137a.jpg","67","","indoor","SR","","","","","","","","","","","","","",""
"image-keyboard-response","27","96687","0.0-2.0-6.0-0.6","1288.9000000953674","","","stimuli/Set_1_rs/011a.jpg","77","","outdoor","SL","","","","","","","","","","","","","",""
"image-keyboard-response","28","99188","0.0-2.0-6.0-0.7","1090.7000000476837","","","stimuli/Set_1_rs/128a.jpg","67","","indoor","SL","","","","","","","","","","","","","",""
"image-keyboard-response","29","101692","0.0-2.0-6.0-0.8","1004.6000001430511","","","stimuli/Set_1_rs/083a.jpg","67","","indoor","SL","","","","","","","","","","","","","",""
"image-keyboard-response","30","104193","0.0-2.0-6.0-0.9","1125.7000000476837","","","stimuli/Set_1_rs/136a.jpg","67","","indoor","SR","","","","","","","","","","","","","",""
"image-keyboard-response","31","106695","0.0-2.0-6.0-0.10","736.1999998092651","","","stimuli/Set_1_rs/103a.jpg","67","","indoor","SL","","","","","","","","","","","","","",""
"image-keyboard-response","32","109198","0.0-2.0-6.0-0.11","874.5","","","stimuli/Set_1_rs/086a.jpg","67","","indoor","SR","","","","","","","","","","","","","",""
"image-keyboard-response","33","111701","0.0-2.0-6.0-0.12","1139.3999998569489","","","stimuli/Set_1_rs/099a.jpg","77","","outdoor","SL","","","","","","","","","","","","","",""
"image-keyboard-response","34","114203","0.0-2.0-6.0-0.13","844.5","","","stimuli/Set_1_rs/178a.jpg","67","","indoor","SL","","","","","","","","","","","","","",""
"image-keyboard-response","35","116705","0.0-2.0-6.0-0.14","1094.6000001430511","","","stimuli/Set_1_rs/134a.jpg","67","","indoor","SL","","","","","","","","","","","","","",""
"image-keyboard-response","36","119206","0.0-2.0-6.0-0.15","800.3999998569489","","","stimuli/Set_1_rs/156a.jpg","67","","indoor","SL","","","","","","","","","","","","","",""
"image-keyboard-response","37","121708","0.0-2.0-6.0-0.16","1194.2999999523163","","","stimuli/Set_1_rs/054a.jpg","77","","outdoor","SR","","","","","","","","","","","","","",""
"image-keyboard-response","38","124211","0.0-2.0-6.0-0.17","1013","","","stimuli/Set_1_rs/092a.jpg","67","","indoor","SL","","","","","","","","","","","","","",""
"image-keyboard-response","39","126713","0.0-2.0-6.0-0.18","1374.5999999046326","","","stimuli/Set_1_rs/031a.jpg","67","","indoor","SL","","","","","","","","","","","","","",""
"image-keyboard-response","40","129214","0.0-2.0-6.0-0.19","984.2000000476837","","","stimuli/Set_1_rs/013a.jpg","67","","indoor","SL","","","","","","","","","","","","","",""
"image-keyboard-response","41","131718","0.0-2.0-6.0-0.20","1346.2999999523163","","","stimuli/Set_1_rs/075a.jpg","77","","outdoor","SL","","","","","","","","","","","","","",""
"image-keyboard-response","42","134220","0.0-2.0-6.0-0.21","1515.5999999046326","","","stimuli/Set_1_rs/150a.jpg","67","","indoor","SR","","","","","","","","","","","","","",""
"image-keyboard-response","43","136721","0.0-2.0-6.0-0.22","757.6000001430511","","","stimuli/Set_1_rs/094a.jpg","67","","indoor","SL","","","","","","","","","","","","","",""
"image-keyboard-response","44","139223","0.0-2.0-6.0-0.23","896","","","stimuli/Set_1_rs/090a.jpg","77","","outdoor","SL","","","","","","","","","","","","","",""
"image-keyboard-response","45","141725","0.0-2.0-6.0-0.24","1049.8000001907349","","","stimuli/Set_1_rs/192a.jpg","67","","indoor","SR","","","","","","","","","","","","","",""
"image-keyboard-response","46","144227","0.0-2.0-6.0-0.25","1108.0999999046326","","","stimuli/Set_1_rs/116a.jpg","67","","indoor","SL","","","","","","","","","","","","","",""
"image-keyboard-response","47","146728","0.0-2.0-6.0-0.26","1118.2000000476837","","","stimuli/Set_1_rs/044a.jpg","67","","indoor","SR","","","","","","","","","","","","","",""
"image-keyboard-response","48","149230","0.0-2.0-6.0-0.27","1224.6000001430511","","","stimuli/Set_1_rs/114a.jpg","67","","indoor","SL","","","","","","","","","","","","","",""
"image-keyboard-response","49","151733","0.0-2.0-6.0-0.28","1217.8999998569489","","","stimuli/Set_1_rs/112a.jpg","67","","indoor","SR","","","","","","","","","","","","","",""
"image-keyboard-response","50","154234","0.0-2.0-6.0-0.29","1452.3999998569489","","","stimuli/Set_1_rs/052a.jpg","67","","indoor","SL","","","","","","","","","","","","","",""
"image-keyboard-response","51","156736","0.0-2.0-6.0-0.30","1238.7999999523163","","","stimuli/Set_1_rs/058a.jpg","67","","indoor","SR","","","","","","","","","","","","","",""
"image-keyboard-response","52","159238","0.0-2.0-6.0-0.31","929.2999999523163","","","stimuli/Set_1_rs/023a.jpg","77","","outdoor","SL","","","","","","","","","","","","","",""
"image-keyboard-response","53","161741","0.0-2.0-6.0-0.32","1642.7000000476837","","","stimuli/Set_1_rs/030a.jpg","77","","outdoor","SR","","","","","","","","","","","","","",""
"image-keyboard-response","54","164243","0.0-2.0-6.0-0.33","1283.2999999523163","","","stimuli/Set_1_rs/091a.jpg","67","","indoor","SR","","","","","","","","","","","","","",""
"image-keyboard-response","55","166745","0.0-2.0-6.0-0.34","1469.7999999523163","","","stimuli/Set_1_rs/147a.jpg","77","","outdoor","SR","","","","","","","","","","","","","",""
"image-keyboard-response","56","169247","0.0-2.0-6.0-0.35","1096.1000001430511","","","stimuli/Set_1_rs/063a.jpg","77","","outdoor","SR","","","","","","","","","","","","","",""
"image-keyboard-response","57","171749","0.0-2.0-6.0-0.36","1169.7000000476837","","","stimuli/Set_1_rs/040a.jpg","77","","outdoor","SR","","","","","","","","","","","","","",""
"image-keyboard-response","58","174251","0.0-2.0-6.0-0.37","876.2000000476837","","","stimuli/Set_1_rs/038a.jpg","67","","indoor","SR","","","","","","","","","","","","","",""
"image-keyboard-response","59","176752","0.0-2.0-6.0-0.38","982","","","stimuli/Set_1_rs/100a.jpg","67","","indoor","SL","","","","","","","","","","","","","",""
"image-keyboard-response","60","179254","0.0-2.0-6.0-0.39","1024.5","","","stimuli/Set_1_rs/109a.jpg","67","","indoor","SR","","","","","","","","","","","","","",""
"image-keyboard-response","61","181756","0.0-2.0-6.0-0.40","985.8999998569489","","","stimuli/Set_1_rs/191a.jpg","67","","indoor","SR","","","","","","","","","","","","","",""
"image-keyboard-response","62","184259","0.0-2.0-6.0-0.41","1460.2999999523163","","","stimuli/Set_1_rs/061a.jpg","77","","outdoor","SL","","","","","","","","","","","","","",""
"image-keyboard-response","63","186760","0.0-2.0-6.0-0.42","957.9000000953674","","","stimuli/Set_1_rs/162a.jpg","67","","indoor","SR","","","","","","","","","","","","","",""
"image-keyboard-response","64","189263","0.0-2.0-6.0-0.43","1064.5999999046326","","","stimuli/Set_1_rs/046a.jpg","77","","outdoor","SR","","","","","","","","","","","","","",""
"image-keyboard-response","65","191765","0.0-2.0-6.0-0.44","881.4000000953674","","","stimuli/Set_1_rs/155a.jpg","77","","outdoor","SL","","","","","","","","","","","","","",""
"image-keyboard-response","66","194266","0.0-2.0-6.0-0.45","1211.8000001907349","","","stimuli/Set_1_rs/010a.jpg","67","","indoor","SR","","","","","","","","","","","","","",""
"image-keyboard-response","67","196768","0.0-2.0-6.0-0.46","1238.4000000953674","","","stimuli/Set_1_rs/142a.jpg","67","","indoor","SR","","","","","","","","","","","","","",""
"image-keyboard-response","68","199269","0.0-2.0-6.0-0.47","912.9000000953674","","","stimuli/Set_1_rs/045a.jpg","67","","indoor","SL","","","","","","","","","","","","","",""
"image-keyboard-response","69","201772","0.0-2.0-6.0-0.48","1307","","","stimuli/Set_1_rs/070a.jpg","67","","indoor","SR","","","","","","","","","","","","","",""
"image-keyboard-response","70","204273","0.0-2.0-6.0-0.49","836.9000000953674","","","stimuli/Set_1_rs/022a.jpg","67","","indoor","SL","","","","","","","","","","","","","",""
"image-keyboard-response","71","206775","0.0-2.0-6.0-0.50","1391.0999999046326","","","stimuli/Set_1_rs/021a.jpg","67","","indoor","SR","","","","","","","","","","","","","",""
"image-keyboard-response","72","209276","0.0-2.0-6.0-0.51","1161.3000001907349","","","stimuli/Set_1_rs/098a.jpg","67","","indoor","SL","","","","","","","","","","","","","",""
"image-keyboard-response","73","211779","0.0-2.0-6.0-0.52","723.2000000476837","","","stimuli/Set_1_rs/008a.jpg","67","","indoor","SL","","","","","","","","","","","","","",""
"image-keyboard-response","74","214280","0.0-2.0-6.0-0.53","1053.8999998569489","","","stimuli/Set_1_rs/012a.jpg","67","","indoor","SL","","","","","","","","","","","","","",""
"image-keyboard-response","75","216782","0.0-2.0-6.0-0.54","1112.7000000476837","","","stimuli/Set_1_rs/153a.jpg","67","","indoor","SR","","","","","","","","","","","","","",""
"image-keyboard-response","76","219284","0.0-2.0-6.0-0.55","1506.5","","","stimuli/Set_1_rs/068a.jpg","67","","indoor","SL","","","","","","","","","","","","","",""
"image-keyboard-response","77","221786","0.0-2.0-6.0-0.56","939.7000000476837","","","stimuli/Set_1_rs/140a.jpg","67","","indoor","SL","","","","","","","","","","","","","",""
"image-keyboard-response","78","224288","0.0-2.0-6.0-0.57","1174","","","stimuli/Set_1_rs/029a.jpg","67","","indoor","SR","","","","","","","","","","","","","",""
"image-keyboard-response","79","226789","0.0-2.0-6.0-0.58","864.1999998092651","","","stimuli/Set_1_rs/049a.jpg","77","","outdoor","SR","","","","","","","","","","","","","",""
"image-keyboard-response","80","229291","0.0-2.0-6.0-0.59","683","","","stimuli/Set_1_rs/180a.jpg","67","","indoor","SR","","","","","","","","","","","","","",""
"image-keyboard-response","81","231794","0.0-2.0-6.0-0.60","804.5","","","stimuli/Set_1_rs/033a.jpg","67","","indoor","SL","","","","","","","","","","","","","",""
"image-keyboard-response","82","234295","0.0-2.0-6.0-0.61","1230.5","","","stimuli/Set_1_rs/119a.jpg","67","","indoor","SL","","","","","","","","","","","","","",""
"image-keyboard-response","83","236797","0.0-2.0-6.0-0.62","1129.0999999046326","","","stimuli/Set_1_rs/118a.jpg","77","","outdoor","SR","","","","","","","","","","","","","",""
"image-keyboard-response","84","239299","0.0-2.0-6.0-0.63","979","","","stimuli/Set_1_rs/107a.jpg","77","","outdoor","SR","","","","","","","","","","","","","",""
"html-keyboard-response","85","243314","0.0-2.0-7.0","4013.199999809265","","","<p>Vége a feladat első részének. Tartson egy pár perces szünetet.</p>","32","","","","","","","","","","","","","","","","",""
"html-keyboard-response","86","263986","0.0-2.0-8.0-0.0","20671.200000047684","","","<p>A következőkben ismét tárgyak jelennek majd meg a képernyőn, egymás után.<br>Az Ön feladata eldönteni, látta-e már ezeket a tárgyakat a vizsgálat első felében.</p>		        			<p>Amennyiben pontosan ugyanezt a tárgyat látta (a tárgy <i>régi</i>), nyomja le a <b>C</b> billentyűt.</p>		        			<p>Amennyiben hasonló tárgyat látott (a tárgy <i>hasonló</i>), nyomja le a <b>B</b> billentyűt.</p>		        			<p>Amennyiben nem látta ezt a tárgyat az első részben (a tárgy <i>új</i>), nyomja le az <b>M</b> billentyűt.</p>","32","","","","","","","","","","","","","","","","",""
"html-keyboard-response","87","265987","0.0-2.0-8.0-1.0","null","","","<p>Kezdődik a gyakorlás...</p>","null","","","","","","","","","","","","","","","","",""
"image-keyboard-response","88","269991","0.0-2.0-9.0-0.0","1835.7000000476837","","","stimuli/Set_2_rs/049b.jpg","67","","","TL","l","false","o","","","","","","","","","","",""
"html-keyboard-response","89","278625","0.0-2.0-9.0-1.0","8632.700000047684","","","<p>A helyes válasz: Hasonló.</p><p>Az Ön válasza: Régi.</p>","32","","","","","","","","","","","","","","","","",""
"image-keyboard-response","90","282628","0.0-2.0-9.0-0.1","1406","","","stimuli/Set_2_rs/018b.jpg","77","","","TF","n","true","n","","","","","","","","","","",""
"html-keyboard-response","91","284321","0.0-2.0-9.0-1.1","1692","","","<p>A helyes válasz: Új.</p><p>Az Ön válasza: Új.</p>","32","","","","","","","","","","","","","","","","",""
"image-keyboard-response","92","288324","0.0-2.0-9.0-0.2","1198.0999999046326","","","stimuli/Set_2_rs/028a.jpg","67","","","TR","o","true","o","","","","","","","","","","",""
"html-keyboard-response","93","289729","0.0-2.0-9.0-1.2","1403.7999999523163","","","<p>A helyes válasz: Régi.</p><p>Az Ön válasza: Régi.</p>","32","","","","","","","","","","","","","","","","",""
"image-keyboard-response","94","293732","0.0-2.0-9.0-0.3","878.0999999046326","","","stimuli/Set_2_rs/137a.jpg","67","","","TR","o","true","o","","","","","","","","","","",""
"html-keyboard-response","95","294753","0.0-2.0-9.0-1.3","1020","","","<p>A helyes válasz: Régi.</p><p>Az Ön válasza: Régi.</p>","32","","","","","","","","","","","","","","","","",""
"image-keyboard-response","96","298756","0.0-2.0-9.0-0.4","2062","","","stimuli/Set_2_rs/135b.jpg","66","","","TL","l","false","s","","","","","","","","","","",""
"html-keyboard-response","97","300706","0.0-2.0-9.0-1.4","1947.9000000953674","","","<p>A helyes válasz: Hasonló.</p><p>Az Ön válasza: Hasonló.</p>","32","","","","","","","","","","","","","","","","",""
"image-keyboard-response","98","304708","0.0-2.0-9.0-0.5","1229.7000000476837","","","stimuli/Set_2_rs/019a.jpg","77","","","TF","n","true","n","","","","","","","","","","",""
"html-keyboard-response","99","305649","0.0-2.0-9.0-1.5","940.0999999046326","","","<p>A helyes válasz: Új.</p><p>Az Ön válasza: Új.</p>","32","","","","","","","","","","","","","","","","",""
"html-keyboard-response","100","309314","0.0-2.0-10.0-0.0","3663.399999856949","","","<p>Ez volt a gyakorlás. A feladat következik. A feladat alatt már nem kap visszajelzést.</p>","32","","","","","","","","","","","","","","","","",""
"html-keyboard-response","101","311316","0.0-2.0-10.0-1.0","null","","","<p>Kezdődik a feladat...</p>","null","","","","","","","","","","","","","","","","",""
"image-keyboard-response","102","315820","0.0-2.0-11.0-0.0","1291.5","","","stimuli/Set_1_rs/181a.jpg","77","","","TF","n","true","n","","","","","","","","","","",""
"image-keyboard-response","103","320323","0.0-2.0-11.0-0.1","1538.9000000953674","","","stimuli/Set_1_rs/152a.jpg","77","","","TF","n","true","n","","","","","","","","","","",""
"image-keyboard-response","104","324827","0.0-2.0-11.0-0.2","1595.9000000953674","","","stimuli/Set_1_rs/090b.jpg","66","","","TL","s","true","s","","","","","","","","","","",""
"image-keyboard-response","105","329330","0.0-2.0-11.0-0.3","1028.4000000953674","","","stimuli/Set_1_rs/126a.jpg","77","","","TF","n","true","n","","","","","","","","","","",""
"image-keyboard-response","106","333834","0.0-2.0-11.0-0.4","1692.3999998569489","","","stimuli/Set_1_rs/068b.jpg","66","","","TL","s","true","s","","","","","","","","","","",""
"image-keyboard-response","107","338337","0.0-2.0-11.0-0.5","965","","","stimuli/Set_1_rs/054a.jpg","67","","","TR","o","true","o","","","","","","","","","","",""
"image-keyboard-response","108","342841","0.0-2.0-11.0-0.6","1117.7000000476837","","","stimuli/Set_1_rs/162a.jpg","67","","","TR","o","true","o","","","","","","","","","","",""
"image-keyboard-response","109","347343","0.0-2.0-11.0-0.7","1270.5","","","stimuli/Set_1_rs/019a.jpg","77","","","TF","n","true","n","","","","","","","","","","",""
"image-keyboard-response","110","351845","0.0-2.0-11.0-0.8","1184.8999998569489","","","stimuli/Set_1_rs/119b.jpg","67","","","TL","s","false","o","","","","","","","","","","",""
"image-keyboard-response","111","356348","0.0-2.0-11.0-0.9","1561.7000000476837","","","stimuli/Set_1_rs/052b.jpg","66","","","TL","s","true","s","","","","","","","","","","",""
"image-keyboard-response","112","360851","0.0-2.0-11.0-0.10","1026.6999998092651","","","stimuli/Set_1_rs/135a.jpg","77","","","TF","n","true","n","","","","","","","","","","",""
"image-keyboard-response","113","365354","0.0-2.0-11.0-0.11","1051.0999999046326","","","stimuli/Set_1_rs/004a.jpg","77","","","TF","n","true","n","","","","","","","","","","",""
"image-keyboard-response","114","369858","0.0-2.0-11.0-0.12","2420","","","stimuli/Set_1_rs/072a.jpg","66","","","TF","n","false","s","","","","","","","","","","",""
"image-keyboard-response","115","374361","0.0-2.0-11.0-0.13","1596.7000000476837","","","stimuli/Set_1_rs/028a.jpg","77","","","TF","n","true","n","","","","","","","","","","",""
"image-keyboard-response","116","378864","0.0-2.0-11.0-0.14","1013.7000000476837","","","stimuli/Set_1_rs/091a.jpg","67","","","TR","o","true","o","","","","","","","","","","",""
"image-keyboard-response","117","383367","0.0-2.0-11.0-0.15","926.5","","","stimuli/Set_1_rs/108a.jpg","77","","","TF","n","true","n","","","","","","","","","","",""
"image-keyboard-response","118","387870","0.0-2.0-11.0-0.16","1255.5","","","stimuli/Set_1_rs/146a.jpg","66","","","TF","n","false","s","","","","","","","","","","",""
"image-keyboard-response","119","392373","0.0-2.0-11.0-0.17","1120.3999998569489","","","stimuli/Set_1_rs/013b.jpg","66","","","TL","s","true","s","","","","","","","","","","",""
"image-keyboard-response","120","396876","0.0-2.0-11.0-0.18","1017.4000000953674","","","stimuli/Set_1_rs/141a.jpg","77","","","TF","n","true","n","","","","","","","","","","",""
"image-keyboard-response","121","401379","0.0-2.0-11.0-0.19","898.7999999523163","","","stimuli/Set_1_rs/156b.jpg","67","","","TL","s","false","o","","","","","","","","","","",""
"image-keyboard-response","122","405882","0.0-2.0-11.0-0.20","939.4000000953674","","","stimuli/Set_1_rs/024a.jpg","67","","","TR","o","true","o","","","","","","","","","","",""
"image-keyboard-response","123","410386","0.0-2.0-11.0-0.21","1108.2000000476837","","","stimuli/Set_1_rs/046a.jpg","67","","","TR","o","true","o","","","","","","","","","","",""
"image-keyboard-response","124","414890","0.0-2.0-11.0-0.22","1292.5","","","stimuli/Set_1_rs/100b.jpg","66","","","TL","s","true","s","","","","","","","","","","",""
"image-keyboard-response","125","419392","0.0-2.0-11.0-0.23","1636.6000001430511","","","stimuli/Set_1_rs/080a.jpg","66","","","TF","n","false","s","","","","","","","","","","",""
"image-keyboard-response","126","423895","0.0-2.0-11.0-0.24","1646.4000000953674","","","stimuli/Set_1_rs/094b.jpg","66","","","TL","s","true","s","","","","","","","","","","",""
"image-keyboard-response","127","428398","0.0-2.0-11.0-0.25","999.0999999046326","","","stimuli/Set_1_rs/190a.jpg","77","","","TF","n","true","n","","","","","","","","","","",""
"image-keyboard-response","128","432900","0.0-2.0-11.0-0.26","1056.9000000953674","","","stimuli/Set_1_rs/137a.jpg","67","","","TR","o","true","o","","","","","","","","","","",""
"image-keyboard-response","129","437403","0.0-2.0-11.0-0.27","778.0999999046326","","","stimuli/Set_1_rs/180a.jpg","67","","","TR","o","true","o","","","","","","","","","","",""
"image-keyboard-response","130","441906","0.0-2.0-11.0-0.28","1202.5","","","stimuli/Set_1_rs/134b.jpg","66","","","TL","s","true","s","","","","","","","","","","",""
"image-keyboard-response","131","446410","0.0-2.0-11.0-0.29","1467.2000000476837","","","stimuli/Set_1_rs/088a.jpg","77","","","TF","n","true","n","","","","","","","","","","",""
"image-keyboard-response","132","450912","0.0-2.0-11.0-0.30","1076.2999999523163","","","stimuli/Set_1_rs/165a.jpg","77","","","TF","n","true","n","","","","","","","","","","",""
"image-keyboard-response","133","455415","0.0-2.0-11.0-0.31","1709.2000000476837","","","stimuli/Set_1_rs/075b.jpg","66","","","TL","s","true","s","","","","","","","","","","",""
"image-keyboard-response","134","459918","0.0-2.0-11.0-0.32","1014.2999999523163","","","stimuli/Set_1_rs/191a.jpg","67","","","TR","o","true","o","","","","","","","","","","",""
"image-keyboard-response","135","464422","0.0-2.0-11.0-0.33","1759.6000001430511","","","stimuli/Set_1_rs/112a.jpg","66","","","TR","o","false","s","","","","","","","","","","",""
"image-keyboard-response","136","468925","0.0-2.0-11.0-0.34","1415.2999999523163","","","stimuli/Set_1_rs/171a.jpg","77","","","TF","n","true","n","","","","","","","","","","",""
"image-keyboard-response","137","473428","0.0-2.0-11.0-0.35","992.3999998569489","","","stimuli/Set_1_rs/021a.jpg","67","","","TR","o","true","o","","","","","","","","","","",""
"image-keyboard-response","138","477931","0.0-2.0-11.0-0.36","2105.600000143051","","","stimuli/Set_1_rs/157a.jpg","66","","","TR","o","false","s","","","","","","","","","","",""
"image-keyboard-response","139","482434","0.0-2.0-11.0-0.37","1090.1999998092651","","","stimuli/Set_1_rs/059b.jpg","67","","","TL","s","false","o","","","","","","","","","","",""
"image-keyboard-response","140","486938","0.0-2.0-11.0-0.38","1226.9000000953674","","","stimuli/Set_1_rs/153a.jpg","67","","","TR","o","true","o","","","","","","","","","","",""
"image-keyboard-response","141","491442","0.0-2.0-11.0-0.39","931.5","","","stimuli/Set_1_rs/002a.jpg","77","","","TF","n","true","n","","","","","","","","","","",""
"image-keyboard-response","142","495944","0.0-2.0-11.0-0.40","1324.0999999046326","","","stimuli/Set_1_rs/041a.jpg","77","","","TF","n","true","n","","","","","","","","","","",""
"image-keyboard-response","143","500447","0.0-2.0-11.0-0.41","1541.5999999046326","","","stimuli/Set_1_rs/012b.jpg","77","","","TL","s","false","n","","","","","","","","","","",""
"image-keyboard-response","144","504950","0.0-2.0-11.0-0.42","1582.6000001430511","","","stimuli/Set_1_rs/083b.jpg","67","","","TL","s","false","o","","","","","","","","","","",""
"image-keyboard-response","145","509453","0.0-2.0-11.0-0.43","1287.3000001907349","","","stimuli/Set_1_rs/051a.jpg","77","","","TF","n","true","n","","","","","","","","","","",""
"image-keyboard-response","146","513957","0.0-2.0-11.0-0.44","1056.3000001907349","","","stimuli/Set_1_rs/168a.jpg","77","","","TF","n","true","n","","","","","","","","","","",""
"image-keyboard-response","147","518460","0.0-2.0-11.0-0.45","1385.2000000476837","","","stimuli/Set_1_rs/155b.jpg","66","","","TL","s","true","s","","","","","","","","","","",""
"image-keyboard-response","148","522964","0.0-2.0-11.0-0.46","1137.2000000476837","","","stimuli/Set_1_rs/045b.jpg","66","","","TL","s","true","s","","","","","","","","","","",""
"image-keyboard-response","149","527467","0.0-2.0-11.0-0.47","1048.7999999523163","","","stimuli/Set_1_rs/031b.jpg","66","","","TL","s","true","s","","","","","","","","","","",""
"image-keyboard-response","150","531971","0.0-2.0-11.0-0.48","1090.1000001430511","","","stimuli/Set_1_rs/136a.jpg","67","","","TR","o","true","o","","","","","","","","","","",""
"image-keyboard-response","151","536474","0.0-2.0-11.0-0.49","1434.4000000953674","","","stimuli/Set_1_rs/053a.jpg","77","","","TF","n","true","n","","","","","","","","","","",""
"image-keyboard-response","152","540977","0.0-2.0-11.0-0.50","1875.5","","","stimuli/Set_1_rs/061b.jpg","66","","","TL","s","true","s","","","","","","","","","","",""
"image-keyboard-response","153","545480","0.0-2.0-11.0-0.51","892.3999998569489","","","stimuli/Set_1_rs/062a.jpg","77","","","TF","n","true","n","","","","","","","","","","",""
"image-keyboard-response","154","549984","0.0-2.0-11.0-0.52","1332.8999998569489","","","stimuli/Set_1_rs/009a.jpg","67","","","TR","o","true","o","","","","","","","","","","",""
"image-keyboard-response","155","554487","0.0-2.0-11.0-0.53","1309.4000000953674","","","stimuli/Set_1_rs/099b.jpg","66","","","TL","s","true","s","","","","","","","","","","",""
"image-keyboard-response","156","558990","0.0-2.0-11.0-0.54","1030.1999998092651","","","stimuli/Set_1_rs/030a.jpg","67","","","TR","o","true","o","","","","","","","","","","",""
"image-keyboard-response","157","563492","0.0-2.0-11.0-0.55","991.4000000953674","","","stimuli/Set_1_rs/029a.jpg","67","","","TR","o","true","o","","","","","","","","","","",""
"image-keyboard-response","158","567995","0.0-2.0-11.0-0.56","1592.5","","","stimuli/Set_1_rs/140b.jpg","66","","","TL","s","true","s","","","","","","","","","","",""
"image-keyboard-response","159","572498","0.0-2.0-11.0-0.57","1105.5","","","stimuli/Set_1_rs/182a.jpg","77","","","TF","n","true","n","","","","","","","","","","",""
"image-keyboard-response","160","577002","0.0-2.0-11.0-0.58","1050.5","","","stimuli/Set_1_rs/151a.jpg","77","","","TF","n","true","n","","","","","","","","","","",""
"image-keyboard-response","161","581506","0.0-2.0-11.0-0.59","914.3999998569489","","","stimuli/Set_1_rs/142a.jpg","67","","","TR","o","true","o","","","","","","","","","","",""
"image-keyboard-response","162","586009","0.0-2.0-11.0-0.60","843.2000000476837","","","stimuli/Set_1_rs/070a.jpg","67","","","TR","o","true","o","","","","","","","","","","",""
"image-keyboard-response","163","590512","0.0-2.0-11.0-0.61","931.7999999523163","","","stimuli/Set_1_rs/121a.jpg","77","","","TF","n","true","n","","","","","","","","","","",""
"image-keyboard-response","164","595016","0.0-2.0-11.0-0.62","1100.1999998092651","","","stimuli/Set_1_rs/008b.jpg","66","","","TL","s","true","s","","","","","","","","","","",""
"image-keyboard-response","165","599519","0.0-2.0-11.0-0.63","1221.1000001430511","","","stimuli/Set_1_rs/092b.jpg","66","","","TL","s","true","s","","","","","","","","","","",""
"image-keyboard-response","166","604022","0.0-2.0-11.0-0.64","909.8999998569489","","","stimuli/Set_1_rs/192a.jpg","67","","","TR","o","true","o","","","","","","","","","","",""
"image-keyboard-response","167","608525","0.0-2.0-11.0-0.65","839.0999999046326","","","stimuli/Set_1_rs/147a.jpg","67","","","TR","o","true","o","","","","","","","","","","",""
"image-keyboard-response","168","613029","0.0-2.0-11.0-0.66","895.7999999523163","","","stimuli/Set_1_rs/032a.jpg","77","","","TF","n","true","n","","","","","","","","","","",""
"image-keyboard-response","169","617531","0.0-2.0-11.0-0.67","1048","","","stimuli/Set_1_rs/128b.jpg","66","","","TL","s","true","s","","","","","","","","","","",""
"image-keyboard-response","170","622034","0.0-2.0-11.0-0.68","1201.5","","","stimuli/Set_1_rs/186a.jpg","77","","","TF","n","true","n","","","","","","","","","","",""
"image-keyboard-response","171","626537","0.0-2.0-11.0-0.69","842.3999998569489","","","stimuli/Set_1_rs/109a.jpg","67","","","TR","o","true","o","","","","","","","","","","",""
"image-keyboard-response","172","631039","0.0-2.0-11.0-0.70","2132","","","stimuli/Set_1_rs/160a.jpg","77","","","TF","n","true","n","","","","","","","","","","",""
"image-keyboard-response","173","635542","0.0-2.0-11.0-0.71","1245.6000001430511","","","stimuli/Set_1_rs/086a.jpg","67","","","TR","o","true","o","","","","","","","","","","",""
"image-keyboard-response","174","640044","0.0-2.0-11.0-0.72","1222.8000001907349","","","stimuli/Set_1_rs/023b.jpg","67","","","TL","s","false","o","","","","","","","","","","",""
"image-keyboard-response","175","644548","0.0-2.0-11.0-0.73","1424.0999999046326","","","stimuli/Set_1_rs/114b.jpg","66","","","TL","s","true","s","","","","","","","","","","",""
"image-keyboard-response","176","649051","0.0-2.0-11.0-0.74","1048.5999999046326","","","stimuli/Set_1_rs/033b.jpg","66","","","TL","s","true","s","","","","","","","","","","",""
"image-keyboard-response","177","653553","0.0-2.0-11.0-0.75","897.5999999046326","","","stimuli/Set_1_rs/010a.jpg","67","","","TR","o","true","o","","","","","","","","","","",""
"image-keyboard-response","178","658057","0.0-2.0-11.0-0.76","1034.7999999523163","","","stimuli/Set_1_rs/150a.jpg","67","","","TR","o","true","o","","","","","","","","","","",""
"image-keyboard-response","179","662560","0.0-2.0-11.0-0.77","1027.4000000953674","","","stimuli/Set_1_rs/038a.jpg","67","","","TR","o","true","o","","","","","","","","","","",""
"image-keyboard-response","180","667063","0.0-2.0-11.0-0.78","1916.1000001430511","","","stimuli/Set_1_rs/022b.jpg","66","","","TL","s","true","s","","","","","","","","","","",""
"image-keyboard-response","181","671567","0.0-2.0-11.0-0.79","948.9000000953674","","","stimuli/Set_1_rs/018a.jpg","77","","","TF","n","true","n","","","","","","","","","","",""
"image-keyboard-response","182","676070","0.0-2.0-11.0-0.80","973.5","","","stimuli/Set_1_rs/081a.jpg","77","","","TF","n","true","n","","","","","","","","","","",""
"image-keyboard-response","183","680573","0.0-2.0-11.0-0.81","1078.1999998092651","","","stimuli/Set_1_rs/107a.jpg","67","","","TR","o","true","o","","","","","","","","","","",""
"image-keyboard-response","184","685076","0.0-2.0-11.0-0.82","911.1000001430511","","","stimuli/Set_1_rs/101b.jpg","67","","","TL","s","false","o","","","","","","","","","","",""
"image-keyboard-response","185","689579","0.0-2.0-11.0-0.83","1447.8000001907349","","","stimuli/Set_1_rs/178b.jpg","66","","","TL","s","true","s","","","","","","","","","","",""
"image-keyboard-response","186","694082","0.0-2.0-11.0-0.84","1200.5","","","stimuli/Set_1_rs/103b.jpg","66","","","TL","s","true","s","","","","","","","","","","",""
"image-keyboard-response","187","698586","0.0-2.0-11.0-0.85","1962","","","stimuli/Set_1_rs/116b.jpg","67","","","TL","s","false","o","","","","","","","","","","",""
"image-keyboard-response","188","703089","0.0-2.0-11.0-0.86","1426.2000000476837","","","stimuli/Set_1_rs/122a.jpg","77","","","TF","n","true","n","","","","","","","","","","",""
"image-keyboard-response","189","707591","0.0-2.0-11.0-0.87","1595.6000001430511","","","stimuli/Set_1_rs/044a.jpg","66","","","TR","o","false","s","","","","","","","","","","",""
"image-keyboard-response","190","712094","0.0-2.0-11.0-0.88","1204.9000000953674","","","stimuli/Set_1_rs/049a.jpg","67","","","TR","o","true","o","","","","","","","","","","",""
"image-keyboard-response","191","716597","0.0-2.0-11.0-0.89","829.7999999523163","","","stimuli/Set_1_rs/118a.jpg","67","","","TR","o","true","o","","","","","","","","","","",""
"image-keyboard-response","192","721100","0.0-2.0-11.0-0.90","790.2999999523163","","","stimuli/Set_1_rs/040a.jpg","67","","","TR","o","true","o","","","","","","","","","","",""
"image-keyboard-response","193","725603","0.0-2.0-11.0-0.91","1503.1999998092651","","","stimuli/Set_1_rs/011b.jpg","66","","","TL","s","true","s","","","","","","","","","","",""
"image-keyboard-response","194","730107","0.0-2.0-11.0-0.92","776.0999999046326","","","stimuli/Set_1_rs/087a.jpg","77","","","TF","n","true","n","","","","","","","","","","",""
"image-keyboard-response","195","734610","0.0-2.0-11.0-0.93","832.7999999523163","","","stimuli/Set_1_rs/063a.jpg","67","","","TR","o","true","o","","","","","","","","","","",""
"image-keyboard-response","196","739113","0.0-2.0-11.0-0.94","1401.2999999523163","","","stimuli/Set_1_rs/098b.jpg","66","","","TL","s","true","s","","","","","","","","","","",""
"image-keyboard-response","197","743617","0.0-2.0-11.0-0.95","914.5","","","stimuli/Set_1_rs/058a.jpg","67","","","TR","o","true","o","","","","","","","","","","",""
"html-keyboard-response","198","763454","0.0-3.0","19835.5","","","<p>Vége a feladatnak. Köszönjük a részvételt!</p>","32","","","","","","","31","3","0","8","25","1","0","3","31","0.9117647058823529","0.6470588235294118"
