"trial_type","trial_index","time_elapsed","internal_node_id","rt","responses","success","stimulus","key_press","cond","enc_response","condition","correct_response","correct","rec_response","targ_old","targ_sim","targ_new","lure_old","lure_sim","lure_new","foil_old","foil_sim","foil_new","recognition_ratio","ldi"
"pavlovia","0","4","0.0-0.0","","","","","","","","","","","","","","","","","","","","","",""
"survey-multi-choice","1","6153","0.0-1.0","6147","{""Q0"":""Igen"",""Q1"":""Igen""}","","","","","","","","","","","","","","","","","","","",""
"survey-text","2","11268","0.0-2.0-0.0","5112.799999982119","{""Q0"":""309797""}","","","","","","","","","","","","","","","","","","","",""
"fullscreen","3","13980","0.0-2.0-1.0","","","true","","","","","","","","","","","","","","","","","","",""
"html-keyboard-response","4","23157","0.0-2.0-2.0","9175.5","","","<p>Üdvözöljük! Ez a feladat két részből áll, és összesen 10-15 percet vesz igénybe.</p>","74","","","","","","","","","","","","","","","","",""
"html-keyboard-response","5","46339","0.0-2.0-3.0-0.0","23181.09999999404","","","<p>Az első részben tárgyakat lát majd a képernyőn, egymás után fognak megjelenni.<br>Az Ön feladata eldönteni, hogy a tárgyak <i>beltéri vagy kültéri</i> tárgyak-e.</p>						   <p>Amennyiben a tárgyat általában beltéren látja, nyomja le a <b>C</b> billentyűt. Amennyiben a tárgyat általában kültéren látja, nyomja le az <b>M</b> billentyűt.</p>						   <p>Ebben a feladatban nincsen mindig egyértelműen jó megoldás. Válaszoljon legjobb tudása szerint. A válaszadásra 2 másodperce lesz.","32","","","","","","","","","","","","","","","","",""
"html-keyboard-response","6","48341","0.0-2.0-3.0-1.0","null","","","<p>Kezdődik a gyakorlás...</p>","null","","","","","","","","","","","","","","","","",""
"image-keyboard-response","7","50346","0.0-2.0-4.0-0.0","1177.9000000059605","","","stimuli/Set_2_rs/165b.jpg","77","-","outdoor","","","","","","","","","","","","","","",""
"html-keyboard-response","8","53475","0.0-2.0-4.0-1.0","2625.5","","","<p>Az Ön válasza:</p><p>Kültéri.</p>","32","","","","","","","","","","","","","","","","",""
"image-keyboard-response","9","55477","0.0-2.0-4.0-0.1","877.9000000059605","","","stimuli/Set_2_rs/034a.jpg","67","-","indoor","","","","","","","","","","","","","","",""
"html-keyboard-response","10","58803","0.0-2.0-4.0-1.1","2823.9000000059605","","","<p>Az Ön válasza:</p><p>Beltéri.</p>","32","","","","","","","","","","","","","","","","",""
"image-keyboard-response","11","60805","0.0-2.0-4.0-0.2","1469.800000011921","","","stimuli/Set_2_rs/049a.jpg","77","SL","outdoor","","","","","","","","","","","","","","",""
"html-keyboard-response","12","63619","0.0-2.0-4.0-1.2","2311.5","","","<p>Az Ön válasza:</p><p>Kültéri.</p>","32","","","","","","","","","","","","","","","","",""
"image-keyboard-response","13","65623","0.0-2.0-4.0-0.3","957.5","","","stimuli/Set_2_rs/028a.jpg","67","SR","indoor","","","","","","","","","","","","","","",""
"html-keyboard-response","14","67219","0.0-2.0-4.0-1.3","1095.2000000178814","","","<p>Az Ön válasza:</p><p>Beltéri.</p>","32","","","","","","","","","","","","","","","","",""
"image-keyboard-response","15","69221","0.0-2.0-4.0-0.4","1006.1000000238419","","","stimuli/Set_2_rs/135a.jpg","67","SL","indoor","","","","","","","","","","","","","","",""
"html-keyboard-response","16","71523","0.0-2.0-4.0-1.4","1799.800000011921","","","<p>Az Ön válasza:</p><p>Beltéri.</p>","32","","","","","","","","","","","","","","","","",""
"image-keyboard-response","17","73526","0.0-2.0-4.0-0.5","1437.800000011921","","","stimuli/Set_2_rs/137a.jpg","67","SR","indoor","","","","","","","","","","","","","","",""
"html-keyboard-response","18","75379","0.0-2.0-4.0-1.5","1351.4000000059605","","","<p>Az Ön válasza:</p><p>Beltéri.</p>","32","","","","","","","","","","","","","","","","",""
"html-keyboard-response","19","87315","0.0-2.0-5.0-0.0","11935.09999999404","","","<p>Ez volt a gyakorlás. A feladat következik. A feladat alatt már nem kap visszajelzést.</p>","32","","","","","","","","","","","","","","","","",""
"html-keyboard-response","20","89317","0.0-2.0-5.0-1.0","null","","","<p>Kezdődik a feladat...</p>","null","","","","","","","","","","","","","","","","",""
"image-keyboard-response","21","91821","0.0-2.0-6.0-0.0","1291.0999999940395","","","stimuli/Set_1_rs/157a.jpg","67","","indoor","SR","","","","","","","","","","","","","",""
"image-keyboard-response","22","94323","0.0-2.0-6.0-0.1","1156.5999999940395","","","stimuli/Set_1_rs/009a.jpg","67","","indoor","SR","","","","","","","","","","","","","",""
"image-keyboard-response","23","96825","0.0-2.0-6.0-0.2","1662.2999999821186","","","stimuli/Set_1_rs/059a.jpg","77","","outdoor","SL","","","","","","","","","","","","","",""
"image-keyboard-response","24","99327","0.0-2.0-6.0-0.3","1416.800000011921","","","stimuli/Set_1_rs/024a.jpg","77","","outdoor","SR","","","","","","","","","","","","","",""
"image-keyboard-response","25","101828","0.0-2.0-6.0-0.4","914.5999999940395","","","stimuli/Set_1_rs/101a.jpg","67","","indoor","SL","","","","","","","","","","","","","",""
"image-keyboard-response","26","104330","0.0-2.0-6.0-0.5","1133.199999988079","","","stimuli/Set_1_rs/137a.jpg","77","","outdoor","SR","","","","","","","","","","","","","",""
"image-keyboard-response","27","106831","0.0-2.0-6.0-0.6","1127.699999988079","","","stimuli/Set_1_rs/011a.jpg","67","","indoor","SL","","","","","","","","","","","","","",""
"image-keyboard-response","28","109333","0.0-2.0-6.0-0.7","929.7000000178814","","","stimuli/Set_1_rs/128a.jpg","67","","indoor","SL","","","","","","","","","","","","","",""
"image-keyboard-response","29","111834","0.0-2.0-6.0-0.8","1212.300000011921","","","stimuli/Set_1_rs/083a.jpg","77","","outdoor","SL","","","","","","","","","","","","","",""
"image-keyboard-response","30","114336","0.0-2.0-6.0-0.9","1031","","","stimuli/Set_1_rs/136a.jpg","67","","indoor","SR","","","","","","","","","","","","","",""
"image-keyboard-response","31","116838","0.0-2.0-6.0-0.10","945","","","stimuli/Set_1_rs/103a.jpg","67","","indoor","SL","","","","","","","","","","","","","",""
"image-keyboard-response","32","119340","0.0-2.0-6.0-0.11","699","","","stimuli/Set_1_rs/086a.jpg","67","","indoor","SR","","","","","","","","","","","","","",""
"image-keyboard-response","33","121843","0.0-2.0-6.0-0.12","932.8000000119209","","","stimuli/Set_1_rs/099a.jpg","77","","outdoor","SL","","","","","","","","","","","","","",""
"image-keyboard-response","34","124344","0.0-2.0-6.0-0.13","830.5","","","stimuli/Set_1_rs/178a.jpg","67","","indoor","SL","","","","","","","","","","","","","",""
"image-keyboard-response","35","126846","0.0-2.0-6.0-0.14","825","","","stimuli/Set_1_rs/134a.jpg","67","","indoor","SL","","","","","","","","","","","","","",""
"image-keyboard-response","36","129348","0.0-2.0-6.0-0.15","963","","","stimuli/Set_1_rs/156a.jpg","67","","indoor","SL","","","","","","","","","","","","","",""
"image-keyboard-response","37","131850","0.0-2.0-6.0-0.16","1100.5999999940395","","","stimuli/Set_1_rs/054a.jpg","77","","outdoor","SR","","","","","","","","","","","","","",""
"image-keyboard-response","38","134351","0.0-2.0-6.0-0.17","999.2000000178814","","","stimuli/Set_1_rs/092a.jpg","77","","outdoor","SL","","","","","","","","","","","","","",""
"image-keyboard-response","39","136852","0.0-2.0-6.0-0.18","1426.3999999761581","","","stimuli/Set_1_rs/031a.jpg","67","","indoor","SL","","","","","","","","","","","","","",""
"image-keyboard-response","40","139353","0.0-2.0-6.0-0.19","1309","","","stimuli/Set_1_rs/013a.jpg","77","","outdoor","SL","","","","","","","","","","","","","",""
"image-keyboard-response","41","141855","0.0-2.0-6.0-0.20","1127.7999999821186","","","stimuli/Set_1_rs/075a.jpg","77","","outdoor","SL","","","","","","","","","","","","","",""
"image-keyboard-response","42","144356","0.0-2.0-6.0-0.21","1202.7000000178814","","","stimuli/Set_1_rs/150a.jpg","67","","indoor","SR","","","","","","","","","","","","","",""
"image-keyboard-response","43","146858","0.0-2.0-6.0-0.22","908.9000000059605","","","stimuli/Set_1_rs/094a.jpg","67","","indoor","SL","","","","","","","","","","","","","",""
"image-keyboard-response","44","149359","0.0-2.0-6.0-0.23","791.7000000178814","","","stimuli/Set_1_rs/090a.jpg","77","","outdoor","SL","","","","","","","","","","","","","",""
"image-keyboard-response","45","151862","0.0-2.0-6.0-0.24","1073.4000000059605","","","stimuli/Set_1_rs/192a.jpg","67","","indoor","SR","","","","","","","","","","","","","",""
"image-keyboard-response","46","154364","0.0-2.0-6.0-0.25","1403.300000011921","","","stimuli/Set_1_rs/116a.jpg","67","","indoor","SL","","","","","","","","","","","","","",""
"image-keyboard-response","47","156866","0.0-2.0-6.0-0.26","820.8999999761581","","","stimuli/Set_1_rs/044a.jpg","67","","indoor","SR","","","","","","","","","","","","","",""
"image-keyboard-response","48","159368","0.0-2.0-6.0-0.27","1118.2999999821186","","","stimuli/Set_1_rs/114a.jpg","77","","outdoor","SL","","","","","","","","","","","","","",""
"image-keyboard-response","49","161871","0.0-2.0-6.0-0.28","1208","","","stimuli/Set_1_rs/112a.jpg","77","","outdoor","SR","","","","","","","","","","","","","",""
"image-keyboard-response","50","164373","0.0-2.0-6.0-0.29","1346.0999999940395","","","stimuli/Set_1_rs/052a.jpg","67","","indoor","SL","","","","","","","","","","","","","",""
"image-keyboard-response","51","166875","0.0-2.0-6.0-0.30","924.0999999940395","","","stimuli/Set_1_rs/058a.jpg","67","","indoor","SR","","","","","","","","","","","","","",""
"image-keyboard-response","52","169376","0.0-2.0-6.0-0.31","1190.0999999940395","","","stimuli/Set_1_rs/023a.jpg","77","","outdoor","SL","","","","","","","","","","","","","",""
"image-keyboard-response","53","171879","0.0-2.0-6.0-0.32","1120.199999988079","","","stimuli/Set_1_rs/030a.jpg","77","","outdoor","SR","","","","","","","","","","","","","",""
"image-keyboard-response","54","174381","0.0-2.0-6.0-0.33","1097.5","","","stimuli/Set_1_rs/091a.jpg","67","","indoor","SR","","","","","","","","","","","","","",""
"image-keyboard-response","55","176882","0.0-2.0-6.0-0.34","1124.300000011921","","","stimuli/Set_1_rs/147a.jpg","77","","outdoor","SR","","","","","","","","","","","","","",""
"image-keyboard-response","56","179384","0.0-2.0-6.0-0.35","1038.4000000059605","","","stimuli/Set_1_rs/063a.jpg","77","","outdoor","SR","","","","","","","","","","","","","",""
"image-keyboard-response","57","181888","0.0-2.0-6.0-0.36","998.4000000059605","","","stimuli/Set_1_rs/040a.jpg","77","","outdoor","SR","","","","","","","","","","","","","",""
"image-keyboard-response","58","184391","0.0-2.0-6.0-0.37","960.2999999821186","","","stimuli/Set_1_rs/038a.jpg","67","","indoor","SR","","","","","","","","","","","","","",""
"image-keyboard-response","59","186893","0.0-2.0-6.0-0.38","921.5999999940395","","","stimuli/Set_1_rs/100a.jpg","67","","indoor","SL","","","","","","","","","","","","","",""
"image-keyboard-response","60","189394","0.0-2.0-6.0-0.39","1267.8999999761581","","","stimuli/Set_1_rs/109a.jpg","67","","indoor","SR","","","","","","","","","","","","","",""
"image-keyboard-response","61","191897","0.0-2.0-6.0-0.40","1037.5999999940395","","","stimuli/Set_1_rs/191a.jpg","67","","indoor","SR","","","","","","","","","","","","","",""
"image-keyboard-response","62","194399","0.0-2.0-6.0-0.41","1383.4000000059605","","","stimuli/Set_1_rs/061a.jpg","67","","indoor","SL","","","","","","","","","","","","","",""
"image-keyboard-response","63","196901","0.0-2.0-6.0-0.42","1121.7000000178814","","","stimuli/Set_1_rs/162a.jpg","67","","indoor","SR","","","","","","","","","","","","","",""
"image-keyboard-response","64","199402","0.0-2.0-6.0-0.43","764.1999999880791","","","stimuli/Set_1_rs/046a.jpg","77","","outdoor","SR","","","","","","","","","","","","","",""
"image-keyboard-response","65","201905","0.0-2.0-6.0-0.44","837.5999999940395","","","stimuli/Set_1_rs/155a.jpg","77","","outdoor","SL","","","","","","","","","","","","","",""
"image-keyboard-response","66","204406","0.0-2.0-6.0-0.45","927.5999999940395","","","stimuli/Set_1_rs/010a.jpg","67","","indoor","SR","","","","","","","","","","","","","",""
"image-keyboard-response","67","206908","0.0-2.0-6.0-0.46","683","","","stimuli/Set_1_rs/142a.jpg","77","","outdoor","SR","","","","","","","","","","","","","",""
"image-keyboard-response","68","209409","0.0-2.0-6.0-0.47","1125","","","stimuli/Set_1_rs/045a.jpg","67","","indoor","SL","","","","","","","","","","","","","",""
"image-keyboard-response","69","211911","0.0-2.0-6.0-0.48","1279.0999999940395","","","stimuli/Set_1_rs/070a.jpg","77","","outdoor","SR","","","","","","","","","","","","","",""
"image-keyboard-response","70","214412","0.0-2.0-6.0-0.49","1289.5999999940395","","","stimuli/Set_1_rs/022a.jpg","67","","indoor","SL","","","","","","","","","","","","","",""
"image-keyboard-response","71","216914","0.0-2.0-6.0-0.50","1076.300000011921","","","stimuli/Set_1_rs/021a.jpg","77","","outdoor","SR","","","","","","","","","","","","","",""
"image-keyboard-response","72","219416","0.0-2.0-6.0-0.51","1054.199999988079","","","stimuli/Set_1_rs/098a.jpg","67","","indoor","SL","","","","","","","","","","","","","",""
"image-keyboard-response","73","221918","0.0-2.0-6.0-0.52","984.0999999940395","","","stimuli/Set_1_rs/008a.jpg","67","","indoor","SL","","","","","","","","","","","","","",""
"image-keyboard-response","74","224420","0.0-2.0-6.0-0.53","834.5","","","stimuli/Set_1_rs/012a.jpg","67","","indoor","SL","","","","","","","","","","","","","",""
"image-keyboard-response","75","226921","0.0-2.0-6.0-0.54","1213","","","stimuli/Set_1_rs/153a.jpg","67","","indoor","SR","","","","","","","","","","","","","",""
"image-keyboard-response","76","229423","0.0-2.0-6.0-0.55","1207.7000000178814","","","stimuli/Set_1_rs/068a.jpg","67","","indoor","SL","","","","","","","","","","","","","",""
"image-keyboard-response","77","231925","0.0-2.0-6.0-0.56","912.7999999821186","","","stimuli/Set_1_rs/140a.jpg","67","","indoor","SL","","","","","","","","","","","","","",""
"image-keyboard-response","78","234427","0.0-2.0-6.0-0.57","1194.9000000059605","","","stimuli/Set_1_rs/029a.jpg","67","","indoor","SR","","","","","","","","","","","","","",""
"image-keyboard-response","79","236929","0.0-2.0-6.0-0.58","1173.7000000178814","","","stimuli/Set_1_rs/049a.jpg","77","","outdoor","SR","","","","","","","","","","","","","",""
"image-keyboard-response","80","239431","0.0-2.0-6.0-0.59","783.5","","","stimuli/Set_1_rs/180a.jpg","67","","indoor","SR","","","","","","","","","","","","","",""
"image-keyboard-response","81","241933","0.0-2.0-6.0-0.60","1193","","","stimuli/Set_1_rs/033a.jpg","67","","indoor","SL","","","","","","","","","","","","","",""
"image-keyboard-response","82","244435","0.0-2.0-6.0-0.61","899.5","","","stimuli/Set_1_rs/119a.jpg","77","","outdoor","SL","","","","","","","","","","","","","",""
"image-keyboard-response","83","246936","0.0-2.0-6.0-0.62","1085.6000000238419","","","stimuli/Set_1_rs/118a.jpg","77","","outdoor","SR","","","","","","","","","","","","","",""
"image-keyboard-response","84","249438","0.0-2.0-6.0-0.63","1096.0999999940395","","","stimuli/Set_1_rs/107a.jpg","67","","indoor","SR","","","","","","","","","","","","","",""
"html-keyboard-response","85","318209","0.0-2.0-7.0","68770.19999998808","","","<p>Vége a feladat első részének. Tartson egy pár perces szünetet.</p>","32","","","","","","","","","","","","","","","","",""
"html-keyboard-response","86","367537","0.0-2.0-8.0-0.0","49326.5","","","<p>A következőkben ismét tárgyak jelennek majd meg a képernyőn, egymás után.<br>Az Ön feladata eldönteni, látta-e már ezeket a tárgyakat a vizsgálat első felében.</p>		        			<p>Amennyiben pontosan ugyanezt a tárgyat látta (a tárgy <i>régi</i>), nyomja le a <b>C</b> billentyűt.</p>		        			<p>Amennyiben hasonló tárgyat látott (a tárgy <i>hasonló</i>), nyomja le a <b>B</b> billentyűt.</p>		        			<p>Amennyiben nem látta ezt a tárgyat az első részben (a tárgy <i>új</i>), nyomja le az <b>M</b> billentyűt.</p>","32","","","","","","","","","","","","","","","","",""
"html-keyboard-response","87","369539","0.0-2.0-8.0-1.0","null","","","<p>Kezdődik a gyakorlás...</p>","null","","","","","","","","","","","","","","","","",""
"image-keyboard-response","88","373542","0.0-2.0-9.0-0.0","1067.3999999761581","","","stimuli/Set_2_rs/049b.jpg","66","","","TL","l","false","s","","","","","","","","","","",""
"html-keyboard-response","89","384897","0.0-2.0-9.0-1.0","11353","","","<p>A helyes válasz: Hasonló.</p><p>Az Ön válasza: Hasonló.</p>","32","","","","","","","","","","","","","","","","",""
"image-keyboard-response","90","388900","0.0-2.0-9.0-0.1","1245.5999999940395","","","stimuli/Set_2_rs/018b.jpg","77","","","TF","n","true","n","","","","","","","","","","",""
"html-keyboard-response","91","390272","0.0-2.0-9.0-1.1","1371.4000000059605","","","<p>A helyes válasz: Új.</p><p>Az Ön válasza: Új.</p>","32","","","","","","","","","","","","","","","","",""
"image-keyboard-response","92","394275","0.0-2.0-9.0-0.2","1374.199999988079","","","stimuli/Set_2_rs/028a.jpg","67","","","TR","o","true","o","","","","","","","","","","",""
"html-keyboard-response","93","395488","0.0-2.0-9.0-1.2","1212.0999999940395","","","<p>A helyes válasz: Régi.</p><p>Az Ön válasza: Régi.</p>","32","","","","","","","","","","","","","","","","",""
"image-keyboard-response","94","399491","0.0-2.0-9.0-0.3","1341.9000000059605","","","stimuli/Set_2_rs/137a.jpg","67","","","TR","o","true","o","","","","","","","","","","",""
"html-keyboard-response","95","400480","0.0-2.0-9.0-1.3","988.3000000119209","","","<p>A helyes válasz: Régi.</p><p>Az Ön válasza: Régi.</p>","32","","","","","","","","","","","","","","","","",""
"image-keyboard-response","96","404482","0.0-2.0-9.0-0.4","1342.0999999940395","","","stimuli/Set_2_rs/135b.jpg","67","","","TL","l","false","o","","","","","","","","","","",""
"html-keyboard-response","97","408192","0.0-2.0-9.0-1.4","3708.699999988079","","","<p>A helyes válasz: Hasonló.</p><p>Az Ön válasza: Régi.</p>","32","","","","","","","","","","","","","","","","",""
"image-keyboard-response","98","412195","0.0-2.0-9.0-0.5","2525.7000000178814","","","stimuli/Set_2_rs/019a.jpg","77","","","TF","n","true","n","","","","","","","","","","",""
"html-keyboard-response","99","413696","0.0-2.0-9.0-1.5","1500.300000011921","","","<p>A helyes válasz: Új.</p><p>Az Ön válasza: Új.</p>","32","","","","","","","","","","","","","","","","",""
"html-keyboard-response","100","422160","0.0-2.0-10.0-0.0","8463.40000000596","","","<p>Ez volt a gyakorlás. A feladat következik. A feladat alatt már nem kap visszajelzést.</p>","32","","","","","","","","","","","","","","","","",""
"html-keyboard-response","101","424162","0.0-2.0-10.0-1.0","null","","","<p>Kezdődik a feladat...</p>","null","","","","","","","","","","","","","","","","",""
"image-keyboard-response","102","428665","0.0-2.0-11.0-0.0","1419.5999999940395","","","stimuli/Set_1_rs/181a.jpg","66","","","TF","n","false","s","","","","","","","","","","",""
"image-keyboard-response","103","433168","0.0-2.0-11.0-0.1","1316.5","","","stimuli/Set_1_rs/152a.jpg","77","","","TF","n","true","n","","","","","","","","","","",""
"image-keyboard-response","104","437671","0.0-2.0-11.0-0.2","1181.5","","","stimuli/Set_1_rs/090b.jpg","66","","","TL","s","true","s","","","","","","","","","","",""
"image-keyboard-response","105","442175","0.0-2.0-11.0-0.3","1190.2999999821186","","","stimuli/Set_1_rs/126a.jpg","77","","","TF","n","true","n","","","","","","","","","","",""
"image-keyboard-response","106","446677","0.0-2.0-11.0-0.4","1182.9000000059605","","","stimuli/Set_1_rs/068b.jpg","67","","","TL","s","false","o","","","","","","","","","","",""
"image-keyboard-response","107","451181","0.0-2.0-11.0-0.5","1384.2999999821186","","","stimuli/Set_1_rs/054a.jpg","67","","","TR","o","true","o","","","","","","","","","","",""
"image-keyboard-response","108","455684","0.0-2.0-11.0-0.6","992.6999999880791","","","stimuli/Set_1_rs/162a.jpg","67","","","TR","o","true","o","","","","","","","","","","",""
"image-keyboard-response","109","460187","0.0-2.0-11.0-0.7","1225.300000011921","","","stimuli/Set_1_rs/019a.jpg","77","","","TF","n","true","n","","","","","","","","","","",""
"image-keyboard-response","110","464689","0.0-2.0-11.0-0.8","1939.5999999940395","","","stimuli/Set_1_rs/119b.jpg","67","","","TL","s","false","o","","","","","","","","","","",""
"image-keyboard-response","111","469191","0.0-2.0-11.0-0.9","1037.300000011921","","","stimuli/Set_1_rs/052b.jpg","66","","","TL","s","true","s","","","","","","","","","","",""
"image-keyboard-response","112","473694","0.0-2.0-11.0-0.10","1158.9000000059605","","","stimuli/Set_1_rs/135a.jpg","77","","","TF","n","true","n","","","","","","","","","","",""
"image-keyboard-response","113","478197","0.0-2.0-11.0-0.11","1599.4000000059605","","","stimuli/Set_1_rs/004a.jpg","77","","","TF","n","true","n","","","","","","","","","","",""
"image-keyboard-response","114","482700","0.0-2.0-11.0-0.12","1336.0999999940395","","","stimuli/Set_1_rs/072a.jpg","66","","","TF","n","false","s","","","","","","","","","","",""
"image-keyboard-response","115","487203","0.0-2.0-11.0-0.13","1121.2000000178814","","","stimuli/Set_1_rs/028a.jpg","77","","","TF","n","true","n","","","","","","","","","","",""
"image-keyboard-response","116","491706","0.0-2.0-11.0-0.14","1162.300000011921","","","stimuli/Set_1_rs/091a.jpg","67","","","TR","o","true","o","","","","","","","","","","",""
"image-keyboard-response","117","496209","0.0-2.0-11.0-0.15","979.5","","","stimuli/Set_1_rs/108a.jpg","77","","","TF","n","true","n","","","","","","","","","","",""
"image-keyboard-response","118","500712","0.0-2.0-11.0-0.16","1116","","","stimuli/Set_1_rs/146a.jpg","66","","","TF","n","false","s","","","","","","","","","","",""
"image-keyboard-response","119","505215","0.0-2.0-11.0-0.17","853.6000000238419","","","stimuli/Set_1_rs/013b.jpg","66","","","TL","s","true","s","","","","","","","","","","",""
"image-keyboard-response","120","509718","0.0-2.0-11.0-0.18","1070.3999999761581","","","stimuli/Set_1_rs/141a.jpg","77","","","TF","n","true","n","","","","","","","","","","",""
"image-keyboard-response","121","514220","0.0-2.0-11.0-0.19","1351.4000000059605","","","stimuli/Set_1_rs/156b.jpg","67","","","TL","s","false","o","","","","","","","","","","",""
"image-keyboard-response","122","518723","0.0-2.0-11.0-0.20","1249.2999999821186","","","stimuli/Set_1_rs/024a.jpg","67","","","TR","o","true","o","","","","","","","","","","",""
"image-keyboard-response","123","523226","0.0-2.0-11.0-0.21","1482.5","","","stimuli/Set_1_rs/046a.jpg","67","","","TR","o","true","o","","","","","","","","","","",""
"image-keyboard-response","124","527729","0.0-2.0-11.0-0.22","1027.300000011921","","","stimuli/Set_1_rs/100b.jpg","67","","","TL","s","false","o","","","","","","","","","","",""
"image-keyboard-response","125","532231","0.0-2.0-11.0-0.23","1068.699999988079","","","stimuli/Set_1_rs/080a.jpg","77","","","TF","n","true","n","","","","","","","","","","",""
"image-keyboard-response","126","536735","0.0-2.0-11.0-0.24","1077.9000000059605","","","stimuli/Set_1_rs/094b.jpg","67","","","TL","s","false","o","","","","","","","","","","",""
"image-keyboard-response","127","541238","0.0-2.0-11.0-0.25","1310.0999999940395","","","stimuli/Set_1_rs/190a.jpg","77","","","TF","n","true","n","","","","","","","","","","",""
"image-keyboard-response","128","545741","0.0-2.0-11.0-0.26","1158.7000000178814","","","stimuli/Set_1_rs/137a.jpg","67","","","TR","o","true","o","","","","","","","","","","",""
"image-keyboard-response","129","550244","0.0-2.0-11.0-0.27","1088.0999999940395","","","stimuli/Set_1_rs/180a.jpg","67","","","TR","o","true","o","","","","","","","","","","",""
"image-keyboard-response","130","554747","0.0-2.0-11.0-0.28","1560.7000000178814","","","stimuli/Set_1_rs/134b.jpg","67","","","TL","s","false","o","","","","","","","","","","",""
"image-keyboard-response","131","559249","0.0-2.0-11.0-0.29","1378.2000000178814","","","stimuli/Set_1_rs/088a.jpg","77","","","TF","n","true","n","","","","","","","","","","",""
"image-keyboard-response","132","563752","0.0-2.0-11.0-0.30","1515.3999999761581","","","stimuli/Set_1_rs/165a.jpg","77","","","TF","n","true","n","","","","","","","","","","",""
"image-keyboard-response","133","568256","0.0-2.0-11.0-0.31","900.5","","","stimuli/Set_1_rs/075b.jpg","66","","","TL","s","true","s","","","","","","","","","","",""
"image-keyboard-response","134","572759","0.0-2.0-11.0-0.32","1373.1000000238419","","","stimuli/Set_1_rs/191a.jpg","67","","","TR","o","true","o","","","","","","","","","","",""
"image-keyboard-response","135","577261","0.0-2.0-11.0-0.33","1190.199999988079","","","stimuli/Set_1_rs/112a.jpg","67","","","TR","o","true","o","","","","","","","","","","",""
"image-keyboard-response","136","581764","0.0-2.0-11.0-0.34","1471.300000011921","","","stimuli/Set_1_rs/171a.jpg","77","","","TF","n","true","n","","","","","","","","","","",""
"image-keyboard-response","137","586268","0.0-2.0-11.0-0.35","1352.199999988079","","","stimuli/Set_1_rs/021a.jpg","66","","","TR","o","false","s","","","","","","","","","","",""
"image-keyboard-response","138","590771","0.0-2.0-11.0-0.36","1344.9000000059605","","","stimuli/Set_1_rs/157a.jpg","66","","","TR","o","false","s","","","","","","","","","","",""
"image-keyboard-response","139","595274","0.0-2.0-11.0-0.37","954.0999999940395","","","stimuli/Set_1_rs/059b.jpg","67","","","TL","s","false","o","","","","","","","","","","",""
"image-keyboard-response","140","599777","0.0-2.0-11.0-0.38","1523.0999999940395","","","stimuli/Set_1_rs/153a.jpg","67","","","TR","o","true","o","","","","","","","","","","",""
"image-keyboard-response","141","604280","0.0-2.0-11.0-0.39","971.0999999940395","","","stimuli/Set_1_rs/002a.jpg","77","","","TF","n","true","n","","","","","","","","","","",""
"image-keyboard-response","142","608783","0.0-2.0-11.0-0.40","1556.2000000178814","","","stimuli/Set_1_rs/041a.jpg","77","","","TF","n","true","n","","","","","","","","","","",""
"image-keyboard-response","143","613287","0.0-2.0-11.0-0.41","1677.5999999940395","","","stimuli/Set_1_rs/012b.jpg","66","","","TL","s","true","s","","","","","","","","","","",""
"image-keyboard-response","144","617790","0.0-2.0-11.0-0.42","1158","","","stimuli/Set_1_rs/083b.jpg","67","","","TL","s","false","o","","","","","","","","","","",""
"image-keyboard-response","145","622293","0.0-2.0-11.0-0.43","1054.7000000178814","","","stimuli/Set_1_rs/051a.jpg","77","","","TF","n","true","n","","","","","","","","","","",""
"image-keyboard-response","146","626796","0.0-2.0-11.0-0.44","1303.800000011921","","","stimuli/Set_1_rs/168a.jpg","77","","","TF","n","true","n","","","","","","","","","","",""
"image-keyboard-response","147","631299","0.0-2.0-11.0-0.45","1104.5","","","stimuli/Set_1_rs/155b.jpg","66","","","TL","s","true","s","","","","","","","","","","",""
"image-keyboard-response","148","635801","0.0-2.0-11.0-0.46","1401.699999988079","","","stimuli/Set_1_rs/045b.jpg","66","","","TL","s","true","s","","","","","","","","","","",""
"image-keyboard-response","149","640304","0.0-2.0-11.0-0.47","1618.699999988079","","","stimuli/Set_1_rs/031b.jpg","67","","","TL","s","false","o","","","","","","","","","","",""
"image-keyboard-response","150","644807","0.0-2.0-11.0-0.48","1147.3999999761581","","","stimuli/Set_1_rs/136a.jpg","67","","","TR","o","true","o","","","","","","","","","","",""
"image-keyboard-response","151","649309","0.0-2.0-11.0-0.49","1444.699999988079","","","stimuli/Set_1_rs/053a.jpg","77","","","TF","n","true","n","","","","","","","","","","",""
"image-keyboard-response","152","653812","0.0-2.0-11.0-0.50","1678.5","","","stimuli/Set_1_rs/061b.jpg","66","","","TL","s","true","s","","","","","","","","","","",""
"image-keyboard-response","153","658315","0.0-2.0-11.0-0.51","1335.2999999821186","","","stimuli/Set_1_rs/062a.jpg","77","","","TF","n","true","n","","","","","","","","","","",""
"image-keyboard-response","154","662819","0.0-2.0-11.0-0.52","1456","","","stimuli/Set_1_rs/009a.jpg","67","","","TR","o","true","o","","","","","","","","","","",""
"image-keyboard-response","155","667321","0.0-2.0-11.0-0.53","1673.0999999940395","","","stimuli/Set_1_rs/099b.jpg","66","","","TL","s","true","s","","","","","","","","","","",""
"image-keyboard-response","156","671825","0.0-2.0-11.0-0.54","1218.0999999940395","","","stimuli/Set_1_rs/030a.jpg","67","","","TR","o","true","o","","","","","","","","","","",""
"image-keyboard-response","157","676327","0.0-2.0-11.0-0.55","1194.5","","","stimuli/Set_1_rs/029a.jpg","67","","","TR","o","true","o","","","","","","","","","","",""
"image-keyboard-response","158","680830","0.0-2.0-11.0-0.56","1700.4000000059605","","","stimuli/Set_1_rs/140b.jpg","66","","","TL","s","true","s","","","","","","","","","","",""
"image-keyboard-response","159","685333","0.0-2.0-11.0-0.57","1693.199999988079","","","stimuli/Set_1_rs/182a.jpg","77","","","TF","n","true","n","","","","","","","","","","",""
"image-keyboard-response","160","689835","0.0-2.0-11.0-0.58","2311","","","stimuli/Set_1_rs/151a.jpg","77","","","TF","n","true","n","","","","","","","","","","",""
"image-keyboard-response","161","694338","0.0-2.0-11.0-0.59","1312.2000000178814","","","stimuli/Set_1_rs/142a.jpg","67","","","TR","o","true","o","","","","","","","","","","",""
"image-keyboard-response","162","698841","0.0-2.0-11.0-0.60","1097.300000011921","","","stimuli/Set_1_rs/070a.jpg","67","","","TR","o","true","o","","","","","","","","","","",""
"image-keyboard-response","163","703345","0.0-2.0-11.0-0.61","993.3999999761581","","","stimuli/Set_1_rs/121a.jpg","77","","","TF","n","true","n","","","","","","","","","","",""
"image-keyboard-response","164","707848","0.0-2.0-11.0-0.62","1338.7000000178814","","","stimuli/Set_1_rs/008b.jpg","66","","","TL","s","true","s","","","","","","","","","","",""
"image-keyboard-response","165","712351","0.0-2.0-11.0-0.63","1316","","","stimuli/Set_1_rs/092b.jpg","66","","","TL","s","true","s","","","","","","","","","","",""
"image-keyboard-response","166","716854","0.0-2.0-11.0-0.64","1037.199999988079","","","stimuli/Set_1_rs/192a.jpg","67","","","TR","o","true","o","","","","","","","","","","",""
"image-keyboard-response","167","721357","0.0-2.0-11.0-0.65","1077.5","","","stimuli/Set_1_rs/147a.jpg","67","","","TR","o","true","o","","","","","","","","","","",""
"image-keyboard-response","168","725860","0.0-2.0-11.0-0.66","1502.300000011921","","","stimuli/Set_1_rs/032a.jpg","77","","","TF","n","true","n","","","","","","","","","","",""
"image-keyboard-response","169","730363","0.0-2.0-11.0-0.67","1351.5999999940395","","","stimuli/Set_1_rs/128b.jpg","66","","","TL","s","true","s","","","","","","","","","","",""
"image-keyboard-response","170","734866","0.0-2.0-11.0-0.68","945.2999999821186","","","stimuli/Set_1_rs/186a.jpg","66","","","TF","n","false","s","","","","","","","","","","",""
"image-keyboard-response","171","739369","0.0-2.0-11.0-0.69","1098","","","stimuli/Set_1_rs/109a.jpg","67","","","TR","o","true","o","","","","","","","","","","",""
"image-keyboard-response","172","743871","0.0-2.0-11.0-0.70","1314.9000000059605","","","stimuli/Set_1_rs/160a.jpg","77","","","TF","n","true","n","","","","","","","","","","",""
"image-keyboard-response","173","748374","0.0-2.0-11.0-0.71","1244.5999999940395","","","stimuli/Set_1_rs/086a.jpg","67","","","TR","o","true","o","","","","","","","","","","",""
"image-keyboard-response","174","752877","0.0-2.0-11.0-0.72","1349.300000011921","","","stimuli/Set_1_rs/023b.jpg","66","","","TL","s","true","s","","","","","","","","","","",""
"image-keyboard-response","175","757379","0.0-2.0-11.0-0.73","1262.6000000238419","","","stimuli/Set_1_rs/114b.jpg","66","","","TL","s","true","s","","","","","","","","","","",""
"image-keyboard-response","176","761882","0.0-2.0-11.0-0.74","840.3000000119209","","","stimuli/Set_1_rs/033b.jpg","67","","","TL","s","false","o","","","","","","","","","","",""
"image-keyboard-response","177","766384","0.0-2.0-11.0-0.75","1041.2999999821186","","","stimuli/Set_1_rs/010a.jpg","67","","","TR","o","true","o","","","","","","","","","","",""
"image-keyboard-response","178","770887","0.0-2.0-11.0-0.76","1067","","","stimuli/Set_1_rs/150a.jpg","67","","","TR","o","true","o","","","","","","","","","","",""
"image-keyboard-response","179","775389","0.0-2.0-11.0-0.77","740.0999999940395","","","stimuli/Set_1_rs/038a.jpg","67","","","TR","o","true","o","","","","","","","","","","",""
"image-keyboard-response","180","779893","0.0-2.0-11.0-0.78","1261.7999999821186","","","stimuli/Set_1_rs/022b.jpg","66","","","TL","s","true","s","","","","","","","","","","",""
"image-keyboard-response","181","784395","0.0-2.0-11.0-0.79","1670.5999999940395","","","stimuli/Set_1_rs/018a.jpg","77","","","TF","n","true","n","","","","","","","","","","",""
"image-keyboard-response","182","788898","0.0-2.0-11.0-0.80","800.2999999821186","","","stimuli/Set_1_rs/081a.jpg","77","","","TF","n","true","n","","","","","","","","","","",""
"image-keyboard-response","183","793401","0.0-2.0-11.0-0.81","1161.5","","","stimuli/Set_1_rs/107a.jpg","67","","","TR","o","true","o","","","","","","","","","","",""
"image-keyboard-response","184","797904","0.0-2.0-11.0-0.82","1138.4000000059605","","","stimuli/Set_1_rs/101b.jpg","66","","","TL","s","true","s","","","","","","","","","","",""
"image-keyboard-response","185","802407","0.0-2.0-11.0-0.83","2027.0999999940395","","","stimuli/Set_1_rs/178b.jpg","67","","","TL","s","false","o","","","","","","","","","","",""
"image-keyboard-response","186","806909","0.0-2.0-11.0-0.84","1220.300000011921","","","stimuli/Set_1_rs/103b.jpg","66","","","TL","s","true","s","","","","","","","","","","",""
"image-keyboard-response","187","811412","0.0-2.0-11.0-0.85","1037.9000000059605","","","stimuli/Set_1_rs/116b.jpg","66","","","TL","s","true","s","","","","","","","","","","",""
"image-keyboard-response","188","815915","0.0-2.0-11.0-0.86","1751","","","stimuli/Set_1_rs/122a.jpg","77","","","TF","n","true","n","","","","","","","","","","",""
"image-keyboard-response","189","820417","0.0-2.0-11.0-0.87","943.9000000059605","","","stimuli/Set_1_rs/044a.jpg","67","","","TR","o","true","o","","","","","","","","","","",""
"image-keyboard-response","190","824921","0.0-2.0-11.0-0.88","1401.3999999761581","","","stimuli/Set_1_rs/049a.jpg","67","","","TR","o","true","o","","","","","","","","","","",""
"image-keyboard-response","191","829423","0.0-2.0-11.0-0.89","1298.5999999940395","","","stimuli/Set_1_rs/118a.jpg","67","","","TR","o","true","o","","","","","","","","","","",""
"image-keyboard-response","192","833926","0.0-2.0-11.0-0.90","971.7999999821186","","","stimuli/Set_1_rs/040a.jpg","67","","","TR","o","true","o","","","","","","","","","","",""
"image-keyboard-response","193","838429","0.0-2.0-11.0-0.91","948.8999999761581","","","stimuli/Set_1_rs/011b.jpg","67","","","TL","s","false","o","","","","","","","","","","",""
"image-keyboard-response","194","842932","0.0-2.0-11.0-0.92","814","","","stimuli/Set_1_rs/087a.jpg","77","","","TF","n","true","n","","","","","","","","","","",""
"image-keyboard-response","195","847435","0.0-2.0-11.0-0.93","935","","","stimuli/Set_1_rs/063a.jpg","67","","","TR","o","true","o","","","","","","","","","","",""
"image-keyboard-response","196","851938","0.0-2.0-11.0-0.94","896.5999999940395","","","stimuli/Set_1_rs/098b.jpg","77","","","TL","s","false","n","","","","","","","","","","",""
"image-keyboard-response","197","856440","0.0-2.0-11.0-0.95","793.4000000059605","","","stimuli/Set_1_rs/058a.jpg","67","","","TR","o","true","o","","","","","","","","","","",""
"html-keyboard-response","198","881213","0.0-3.0","24770.5","","","<p>Vége a feladatnak. Köszönjük a részvételt!</p>","32","","","","","","","32","2","0","13","20","1","0","4","30","0.9411764705882353","0.47058823529411764"
