"trial_type","trial_index","time_elapsed","internal_node_id","rt","responses","success","stimulus","key_press","cond","enc_response","condition","correct_response","correct","rec_response","targ_old","targ_sim","targ_new","lure_old","lure_sim","lure_new","foil_old","foil_sim","foil_new","recognition_ratio","ldi"
"pavlovia","0","5","0.0-0.0","","","","","","","","","","","","","","","","","","","","","",""
"survey-multi-choice","1","6770","0.0-1.0","6761.100000023842","{""Q0"":""Igen"",""Q1"":""Igen""}","","","","","","","","","","","","","","","","","","","",""
"survey-text","2","26267","0.0-2.0-0.0","19494.899999976158","{""Q0"":""729477""}","","","","","","","","","","","","","","","","","","","",""
"fullscreen","3","28135","0.0-2.0-1.0","","","true","","","","","","","","","","","","","","","","","","",""
"html-keyboard-response","4","33720","0.0-2.0-2.0","5583.799999952316","","","<p>Üdvözöljük! Ez a feladat két részből áll, és összesen 10-15 percet vesz igénybe.</p>","13","","","","","","","","","","","","","","","","",""
"html-keyboard-response","5","51479","0.0-2.0-3.0-0.0","17758.700000047684","","","<p>Az első részben tárgyakat lát majd a képernyőn, egymás után fognak megjelenni.<br>Az Ön feladata eldönteni, hogy a tárgyak <i>beltéri vagy kültéri</i> tárgyak-e.</p>						   <p>Amennyiben a tárgyat általában beltéren látja, nyomja le a <b>C</b> billentyűt. Amennyiben a tárgyat általában kültéren látja, nyomja le az <b>M</b> billentyűt.</p>						   <p>Ebben a feladatban nincsen mindig egyértelműen jó megoldás. Válaszoljon legjobb tudása szerint. A válaszadásra 2 másodperce lesz.","32","","","","","","","","","","","","","","","","",""
"html-keyboard-response","6","53482","0.0-2.0-3.0-1.0","null","","","<p>Kezdődik a gyakorlás...</p>","null","","","","","","","","","","","","","","","","",""
"image-keyboard-response","7","55485","0.0-2.0-4.0-0.0","1354.7000000476837","","","stimuli/Set_2_rs/165b.jpg","77","-","outdoor","","","","","","","","","","","","","","",""
"html-keyboard-response","8","60152","0.0-2.0-4.0-1.0","4164.600000023842","","","<p>Az Ön válasza:</p><p>Kültéri.</p>","32","","","","","","","","","","","","","","","","",""
"image-keyboard-response","9","62155","0.0-2.0-4.0-0.1","1134.2000000476837","","","stimuli/Set_2_rs/034a.jpg","67","-","indoor","","","","","","","","","","","","","","",""
"html-keyboard-response","10","63688","0.0-2.0-4.0-1.1","1031.5","","","<p>Az Ön válasza:</p><p>Beltéri.</p>","32","","","","","","","","","","","","","","","","",""
"image-keyboard-response","11","65690","0.0-2.0-4.0-0.2","1598.1999999284744","","","stimuli/Set_2_rs/049a.jpg","77","SL","outdoor","","","","","","","","","","","","","","",""
"html-keyboard-response","12","67064","0.0-2.0-4.0-1.2","872.2999999523163","","","<p>Az Ön válasza:</p><p>Kültéri.</p>","32","","","","","","","","","","","","","","","","",""
"image-keyboard-response","13","69066","0.0-2.0-4.0-0.3","1294.6999999284744","","","stimuli/Set_2_rs/028a.jpg","67","SR","indoor","","","","","","","","","","","","","","",""
"html-keyboard-response","14","70104","0.0-2.0-4.0-1.3","536.5","","","<p>Az Ön válasza:</p><p>Beltéri.</p>","32","","","","","","","","","","","","","","","","",""
"image-keyboard-response","15","72106","0.0-2.0-4.0-0.4","1022.5","","","stimuli/Set_2_rs/135a.jpg","67","SL","indoor","","","","","","","","","","","","","","",""
"html-keyboard-response","16","73080","0.0-2.0-4.0-1.4","471.89999997615814","","","<p>Az Ön válasza:</p><p>Beltéri.</p>","32","","","","","","","","","","","","","","","","",""
"image-keyboard-response","17","75082","0.0-2.0-4.0-0.5","1711","","","stimuli/Set_2_rs/137a.jpg","67","SR","indoor","","","","","","","","","","","","","","",""
"html-keyboard-response","18","76248","0.0-2.0-4.0-1.5","663.8000000715256","","","<p>Az Ön válasza:</p><p>Beltéri.</p>","32","","","","","","","","","","","","","","","","",""
"html-keyboard-response","19","82472","0.0-2.0-5.0-0.0","6223.299999952316","","","<p>Ez volt a gyakorlás. A feladat következik. A feladat alatt már nem kap visszajelzést.</p>","32","","","","","","","","","","","","","","","","",""
"html-keyboard-response","20","84474","0.0-2.0-5.0-1.0","null","","","<p>Kezdődik a feladat...</p>","null","","","","","","","","","","","","","","","","",""
"image-keyboard-response","21","86977","0.0-2.0-6.0-0.0","1691.5999999046326","","","stimuli/Set_1_rs/157a.jpg","77","","outdoor","SR","","","","","","","","","","","","","",""
"image-keyboard-response","22","89479","0.0-2.0-6.0-0.1","1205.9000000953674","","","stimuli/Set_1_rs/009a.jpg","67","","indoor","SR","","","","","","","","","","","","","",""
"image-keyboard-response","23","91981","0.0-2.0-6.0-0.2","1359.6000000238419","","","stimuli/Set_1_rs/059a.jpg","67","","indoor","SL","","","","","","","","","","","","","",""
"image-keyboard-response","24","94483","0.0-2.0-6.0-0.3","1001.8000000715256","","","stimuli/Set_1_rs/024a.jpg","77","","outdoor","SR","","","","","","","","","","","","","",""
"image-keyboard-response","25","96985","0.0-2.0-6.0-0.4","1363.1000000238419","","","stimuli/Set_1_rs/101a.jpg","67","","indoor","SL","","","","","","","","","","","","","",""
"image-keyboard-response","26","99487","0.0-2.0-6.0-0.5","1373","","","stimuli/Set_1_rs/137a.jpg","77","","outdoor","SR","","","","","","","","","","","","","",""
"image-keyboard-response","27","101988","0.0-2.0-6.0-0.6","951.3999999761581","","","stimuli/Set_1_rs/011a.jpg","67","","indoor","SL","","","","","","","","","","","","","",""
"image-keyboard-response","28","104490","0.0-2.0-6.0-0.7","1090","","","stimuli/Set_1_rs/128a.jpg","67","","indoor","SL","","","","","","","","","","","","","",""
"image-keyboard-response","29","106992","0.0-2.0-6.0-0.8","907.7000000476837","","","stimuli/Set_1_rs/083a.jpg","67","","indoor","SL","","","","","","","","","","","","","",""
"image-keyboard-response","30","109494","0.0-2.0-6.0-0.9","1029.8999999761581","","","stimuli/Set_1_rs/136a.jpg","67","","indoor","SR","","","","","","","","","","","","","",""
"image-keyboard-response","31","111996","0.0-2.0-6.0-0.10","896","","","stimuli/Set_1_rs/103a.jpg","67","","indoor","SL","","","","","","","","","","","","","",""
"image-keyboard-response","32","114498","0.0-2.0-6.0-0.11","762.1000000238419","","","stimuli/Set_1_rs/086a.jpg","67","","indoor","SR","","","","","","","","","","","","","",""
"image-keyboard-response","33","117001","0.0-2.0-6.0-0.12","1331.2999999523163","","","stimuli/Set_1_rs/099a.jpg","77","","outdoor","SL","","","","","","","","","","","","","",""
"image-keyboard-response","34","119503","0.0-2.0-6.0-0.13","1069.7000000476837","","","stimuli/Set_1_rs/178a.jpg","67","","indoor","SL","","","","","","","","","","","","","",""
"image-keyboard-response","35","122004","0.0-2.0-6.0-0.14","1463.7000000476837","","","stimuli/Set_1_rs/134a.jpg","67","","indoor","SL","","","","","","","","","","","","","",""
"image-keyboard-response","36","124506","0.0-2.0-6.0-0.15","962.1000000238419","","","stimuli/Set_1_rs/156a.jpg","67","","indoor","SL","","","","","","","","","","","","","",""
"image-keyboard-response","37","127008","0.0-2.0-6.0-0.16","1068","","","stimuli/Set_1_rs/054a.jpg","77","","outdoor","SR","","","","","","","","","","","","","",""
"image-keyboard-response","38","129510","0.0-2.0-6.0-0.17","1013.6999999284744","","","stimuli/Set_1_rs/092a.jpg","77","","outdoor","SL","","","","","","","","","","","","","",""
"image-keyboard-response","39","132012","0.0-2.0-6.0-0.18","1392.1000000238419","","","stimuli/Set_1_rs/031a.jpg","67","","indoor","SL","","","","","","","","","","","","","",""
"image-keyboard-response","40","134514","0.0-2.0-6.0-0.19","1290.3999999761581","","","stimuli/Set_1_rs/013a.jpg","67","","indoor","SL","","","","","","","","","","","","","",""
"image-keyboard-response","41","137017","0.0-2.0-6.0-0.20","1539.1999999284744","","","stimuli/Set_1_rs/075a.jpg","67","","indoor","SL","","","","","","","","","","","","","",""
"image-keyboard-response","42","139518","0.0-2.0-6.0-0.21","null","","","stimuli/Set_1_rs/150a.jpg","null","","null","SR","","","","","","","","","","","","","",""
"image-keyboard-response","43","142019","0.0-2.0-6.0-0.22","1368","","","stimuli/Set_1_rs/094a.jpg","67","","indoor","SL","","","","","","","","","","","","","",""
"image-keyboard-response","44","144522","0.0-2.0-6.0-0.23","946.5999999046326","","","stimuli/Set_1_rs/090a.jpg","77","","outdoor","SL","","","","","","","","","","","","","",""
"image-keyboard-response","45","147024","0.0-2.0-6.0-0.24","811.1999999284744","","","stimuli/Set_1_rs/192a.jpg","67","","indoor","SR","","","","","","","","","","","","","",""
"image-keyboard-response","46","149527","0.0-2.0-6.0-0.25","1317.6999999284744","","","stimuli/Set_1_rs/116a.jpg","77","","outdoor","SL","","","","","","","","","","","","","",""
"image-keyboard-response","47","152028","0.0-2.0-6.0-0.26","1871.3000000715256","","","stimuli/Set_1_rs/044a.jpg","77","","outdoor","SR","","","","","","","","","","","","","",""
"image-keyboard-response","48","154531","0.0-2.0-6.0-0.27","1001.4000000953674","","","stimuli/Set_1_rs/114a.jpg","67","","indoor","SL","","","","","","","","","","","","","",""
"image-keyboard-response","49","157032","0.0-2.0-6.0-0.28","738.7000000476837","","","stimuli/Set_1_rs/112a.jpg","67","","indoor","SR","","","","","","","","","","","","","",""
"image-keyboard-response","50","159535","0.0-2.0-6.0-0.29","1149.4000000953674","","","stimuli/Set_1_rs/052a.jpg","67","","indoor","SL","","","","","","","","","","","","","",""
"image-keyboard-response","51","162037","0.0-2.0-6.0-0.30","1383.2000000476837","","","stimuli/Set_1_rs/058a.jpg","67","","indoor","SR","","","","","","","","","","","","","",""
"image-keyboard-response","52","164539","0.0-2.0-6.0-0.31","1408.8000000715256","","","stimuli/Set_1_rs/023a.jpg","77","","outdoor","SL","","","","","","","","","","","","","",""
"image-keyboard-response","53","167041","0.0-2.0-6.0-0.32","938.3999999761581","","","stimuli/Set_1_rs/030a.jpg","77","","outdoor","SR","","","","","","","","","","","","","",""
"image-keyboard-response","54","169543","0.0-2.0-6.0-0.33","981.1000000238419","","","stimuli/Set_1_rs/091a.jpg","67","","indoor","SR","","","","","","","","","","","","","",""
"image-keyboard-response","55","172045","0.0-2.0-6.0-0.34","991.4000000953674","","","stimuli/Set_1_rs/147a.jpg","67","","indoor","SR","","","","","","","","","","","","","",""
"image-keyboard-response","56","174547","0.0-2.0-6.0-0.35","1016.8999999761581","","","stimuli/Set_1_rs/063a.jpg","77","","outdoor","SR","","","","","","","","","","","","","",""
"image-keyboard-response","57","177049","0.0-2.0-6.0-0.36","914.3000000715256","","","stimuli/Set_1_rs/040a.jpg","77","","outdoor","SR","","","","","","","","","","","","","",""
"image-keyboard-response","58","179550","0.0-2.0-6.0-0.37","1196.6000000238419","","","stimuli/Set_1_rs/038a.jpg","67","","indoor","SR","","","","","","","","","","","","","",""
"image-keyboard-response","59","182052","0.0-2.0-6.0-0.38","1303.6000000238419","","","stimuli/Set_1_rs/100a.jpg","67","","indoor","SL","","","","","","","","","","","","","",""
"image-keyboard-response","60","184553","0.0-2.0-6.0-0.39","881.8999999761581","","","stimuli/Set_1_rs/109a.jpg","67","","indoor","SR","","","","","","","","","","","","","",""
"image-keyboard-response","61","187055","0.0-2.0-6.0-0.40","1211.6999999284744","","","stimuli/Set_1_rs/191a.jpg","67","","indoor","SR","","","","","","","","","","","","","",""
"image-keyboard-response","62","189557","0.0-2.0-6.0-0.41","966.3999999761581","","","stimuli/Set_1_rs/061a.jpg","67","","indoor","SL","","","","","","","","","","","","","",""
"image-keyboard-response","63","192059","0.0-2.0-6.0-0.42","1184.1999999284744","","","stimuli/Set_1_rs/162a.jpg","67","","indoor","SR","","","","","","","","","","","","","",""
"image-keyboard-response","64","194560","0.0-2.0-6.0-0.43","1098.7000000476837","","","stimuli/Set_1_rs/046a.jpg","67","","indoor","SR","","","","","","","","","","","","","",""
"image-keyboard-response","65","197063","0.0-2.0-6.0-0.44","868.1999999284744","","","stimuli/Set_1_rs/155a.jpg","77","","outdoor","SL","","","","","","","","","","","","","",""
"image-keyboard-response","66","199564","0.0-2.0-6.0-0.45","1278.7999999523163","","","stimuli/Set_1_rs/010a.jpg","77","","outdoor","SR","","","","","","","","","","","","","",""
"image-keyboard-response","67","202065","0.0-2.0-6.0-0.46","1369.4000000953674","","","stimuli/Set_1_rs/142a.jpg","77","","outdoor","SR","","","","","","","","","","","","","",""
"image-keyboard-response","68","204568","0.0-2.0-6.0-0.47","1092.1999999284744","","","stimuli/Set_1_rs/045a.jpg","67","","indoor","SL","","","","","","","","","","","","","",""
"image-keyboard-response","69","207071","0.0-2.0-6.0-0.48","1373.1000000238419","","","stimuli/Set_1_rs/070a.jpg","77","","outdoor","SR","","","","","","","","","","","","","",""
"image-keyboard-response","70","209573","0.0-2.0-6.0-0.49","1078.5","","","stimuli/Set_1_rs/022a.jpg","67","","indoor","SL","","","","","","","","","","","","","",""
"image-keyboard-response","71","212074","0.0-2.0-6.0-0.50","1040.2000000476837","","","stimuli/Set_1_rs/021a.jpg","77","","outdoor","SR","","","","","","","","","","","","","",""
"image-keyboard-response","72","214575","0.0-2.0-6.0-0.51","875","","","stimuli/Set_1_rs/098a.jpg","67","","indoor","SL","","","","","","","","","","","","","",""
"image-keyboard-response","73","217079","0.0-2.0-6.0-0.52","853","","","stimuli/Set_1_rs/008a.jpg","67","","indoor","SL","","","","","","","","","","","","","",""
"image-keyboard-response","74","219581","0.0-2.0-6.0-0.53","878.0999999046326","","","stimuli/Set_1_rs/012a.jpg","67","","indoor","SL","","","","","","","","","","","","","",""
"image-keyboard-response","75","222083","0.0-2.0-6.0-0.54","1448","","","stimuli/Set_1_rs/153a.jpg","77","","outdoor","SR","","","","","","","","","","","","","",""
"image-keyboard-response","76","224585","0.0-2.0-6.0-0.55","1186.3000000715256","","","stimuli/Set_1_rs/068a.jpg","67","","indoor","SL","","","","","","","","","","","","","",""
"image-keyboard-response","77","227088","0.0-2.0-6.0-0.56","667.3000000715256","","","stimuli/Set_1_rs/140a.jpg","67","","indoor","SL","","","","","","","","","","","","","",""
"image-keyboard-response","78","229589","0.0-2.0-6.0-0.57","917.5999999046326","","","stimuli/Set_1_rs/029a.jpg","67","","indoor","SR","","","","","","","","","","","","","",""
"image-keyboard-response","79","232091","0.0-2.0-6.0-0.58","1263.7000000476837","","","stimuli/Set_1_rs/049a.jpg","77","","outdoor","SR","","","","","","","","","","","","","",""
"image-keyboard-response","80","234593","0.0-2.0-6.0-0.59","778.2999999523163","","","stimuli/Set_1_rs/180a.jpg","67","","indoor","SR","","","","","","","","","","","","","",""
"image-keyboard-response","81","237095","0.0-2.0-6.0-0.60","835.6000000238419","","","stimuli/Set_1_rs/033a.jpg","67","","indoor","SL","","","","","","","","","","","","","",""
"image-keyboard-response","82","239597","0.0-2.0-6.0-0.61","990.5","","","stimuli/Set_1_rs/119a.jpg","67","","indoor","SL","","","","","","","","","","","","","",""
"image-keyboard-response","83","242097","0.0-2.0-6.0-0.62","1016.5","","","stimuli/Set_1_rs/118a.jpg","67","","indoor","SR","","","","","","","","","","","","","",""
"image-keyboard-response","84","244599","0.0-2.0-6.0-0.63","1394.7999999523163","","","stimuli/Set_1_rs/107a.jpg","67","","indoor","SR","","","","","","","","","","","","","",""
"html-keyboard-response","85","248934","0.0-2.0-7.0","4333.900000095367","","","<p>Vége a feladat első részének. Tartson egy pár perces szünetet.</p>","32","","","","","","","","","","","","","","","","",""
"html-keyboard-response","86","274454","0.0-2.0-8.0-0.0","25519.100000023842","","","<p>A következőkben ismét tárgyak jelennek majd meg a képernyőn, egymás után.<br>Az Ön feladata eldönteni, látta-e már ezeket a tárgyakat a vizsgálat első felében.</p>		        			<p>Amennyiben pontosan ugyanezt a tárgyat látta (a tárgy <i>régi</i>), nyomja le a <b>C</b> billentyűt.</p>		        			<p>Amennyiben hasonló tárgyat látott (a tárgy <i>hasonló</i>), nyomja le a <b>B</b> billentyűt.</p>		        			<p>Amennyiben nem látta ezt a tárgyat az első részben (a tárgy <i>új</i>), nyomja le az <b>M</b> billentyűt.</p>","32","","","","","","","","","","","","","","","","",""
"html-keyboard-response","87","276455","0.0-2.0-8.0-1.0","null","","","<p>Kezdődik a gyakorlás...</p>","null","","","","","","","","","","","","","","","","",""
"image-keyboard-response","88","280458","0.0-2.0-9.0-0.0","2444.5","","","stimuli/Set_2_rs/049b.jpg","66","","","TL","l","false","s","","","","","","","","","","",""
"html-keyboard-response","89","282357","0.0-2.0-9.0-1.0","1897.9000000953674","","","<p>A helyes válasz: Hasonló.</p><p>Az Ön válasza: Hasonló.</p>","32","","","","","","","","","","","","","","","","",""
"image-keyboard-response","90","286360","0.0-2.0-9.0-0.1","1934.3000000715256","","","stimuli/Set_2_rs/018b.jpg","77","","","TF","n","true","n","","","","","","","","","","",""
"html-keyboard-response","91","287077","0.0-2.0-9.0-1.1","716.0999999046326","","","<p>A helyes válasz: Új.</p><p>Az Ön válasza: Új.</p>","32","","","","","","","","","","","","","","","","",""
"image-keyboard-response","92","291080","0.0-2.0-9.0-0.2","1565.8999999761581","","","stimuli/Set_2_rs/028a.jpg","67","","","TR","o","true","o","","","","","","","","","","",""
"html-keyboard-response","93","292069","0.0-2.0-9.0-1.2","987.7000000476837","","","<p>A helyes válasz: Régi.</p><p>Az Ön válasza: Régi.</p>","32","","","","","","","","","","","","","","","","",""
"image-keyboard-response","94","296072","0.0-2.0-9.0-0.3","1021.7000000476837","","","stimuli/Set_2_rs/137a.jpg","67","","","TR","o","true","o","","","","","","","","","","",""
"html-keyboard-response","95","296981","0.0-2.0-9.0-1.3","907.2000000476837","","","<p>A helyes válasz: Régi.</p><p>Az Ön válasza: Régi.</p>","32","","","","","","","","","","","","","","","","",""
"image-keyboard-response","96","300984","0.0-2.0-9.0-0.4","1038.1000000238419","","","stimuli/Set_2_rs/135b.jpg","67","","","TL","l","false","o","","","","","","","","","","",""
"html-keyboard-response","97","305878","0.0-2.0-9.0-1.4","4892.200000047684","","","<p>A helyes válasz: Hasonló.</p><p>Az Ön válasza: Régi.</p>","32","","","","","","","","","","","","","","","","",""
"image-keyboard-response","98","309882","0.0-2.0-9.0-0.5","2285.7000000476837","","","stimuli/Set_2_rs/019a.jpg","77","","","TF","n","true","n","","","","","","","","","","",""
"html-keyboard-response","99","310774","0.0-2.0-9.0-1.5","890.3999999761581","","","<p>A helyes válasz: Új.</p><p>Az Ön válasza: Új.</p>","32","","","","","","","","","","","","","","","","",""
"html-keyboard-response","100","345686","0.0-2.0-10.0-0.0","34911.5","","","<p>Ez volt a gyakorlás. A feladat következik. A feladat alatt már nem kap visszajelzést.</p>","32","","","","","","","","","","","","","","","","",""
"html-keyboard-response","101","347688","0.0-2.0-10.0-1.0","null","","","<p>Kezdődik a feladat...</p>","null","","","","","","","","","","","","","","","","",""
"image-keyboard-response","102","352191","0.0-2.0-11.0-0.0","1611.6000000238419","","","stimuli/Set_1_rs/181a.jpg","77","","","TF","n","true","n","","","","","","","","","","",""
"image-keyboard-response","103","356693","0.0-2.0-11.0-0.1","1172.5","","","stimuli/Set_1_rs/152a.jpg","77","","","TF","n","true","n","","","","","","","","","","",""
"image-keyboard-response","104","361196","0.0-2.0-11.0-0.2","1374.3000000715256","","","stimuli/Set_1_rs/090b.jpg","66","","","TL","s","true","s","","","","","","","","","","",""
"image-keyboard-response","105","365699","0.0-2.0-11.0-0.3","903.2000000476837","","","stimuli/Set_1_rs/126a.jpg","77","","","TF","n","true","n","","","","","","","","","","",""
"image-keyboard-response","106","370201","0.0-2.0-11.0-0.4","1216.3999999761581","","","stimuli/Set_1_rs/068b.jpg","77","","","TL","s","false","n","","","","","","","","","","",""
"image-keyboard-response","107","374704","0.0-2.0-11.0-0.5","1481.8999999761581","","","stimuli/Set_1_rs/054a.jpg","67","","","TR","o","true","o","","","","","","","","","","",""
"image-keyboard-response","108","379207","0.0-2.0-11.0-0.6","1346.7999999523163","","","stimuli/Set_1_rs/162a.jpg","67","","","TR","o","true","o","","","","","","","","","","",""
"image-keyboard-response","109","383710","0.0-2.0-11.0-0.7","1356.1000000238419","","","stimuli/Set_1_rs/019a.jpg","77","","","TF","n","true","n","","","","","","","","","","",""
"image-keyboard-response","110","388212","0.0-2.0-11.0-0.8","2229.5","","","stimuli/Set_1_rs/119b.jpg","66","","","TL","s","true","s","","","","","","","","","","",""
"image-keyboard-response","111","392715","0.0-2.0-11.0-0.9","1006.5","","","stimuli/Set_1_rs/052b.jpg","66","","","TL","s","true","s","","","","","","","","","","",""
"image-keyboard-response","112","397218","0.0-2.0-11.0-0.10","1367.7000000476837","","","stimuli/Set_1_rs/135a.jpg","77","","","TF","n","true","n","","","","","","","","","","",""
"image-keyboard-response","113","401721","0.0-2.0-11.0-0.11","1233.1999999284744","","","stimuli/Set_1_rs/004a.jpg","77","","","TF","n","true","n","","","","","","","","","","",""
"image-keyboard-response","114","406224","0.0-2.0-11.0-0.12","1049.8000000715256","","","stimuli/Set_1_rs/072a.jpg","77","","","TF","n","true","n","","","","","","","","","","",""
"image-keyboard-response","115","410726","0.0-2.0-11.0-0.13","1106.7000000476837","","","stimuli/Set_1_rs/028a.jpg","77","","","TF","n","true","n","","","","","","","","","","",""
"image-keyboard-response","116","415230","0.0-2.0-11.0-0.14","1644.1999999284744","","","stimuli/Set_1_rs/091a.jpg","67","","","TR","o","true","o","","","","","","","","","","",""
"image-keyboard-response","117","419733","0.0-2.0-11.0-0.15","1429.1000000238419","","","stimuli/Set_1_rs/108a.jpg","77","","","TF","n","true","n","","","","","","","","","","",""
"image-keyboard-response","118","424236","0.0-2.0-11.0-0.16","2157.600000023842","","","stimuli/Set_1_rs/146a.jpg","77","","","TF","n","true","n","","","","","","","","","","",""
"image-keyboard-response","119","428739","0.0-2.0-11.0-0.17","1542.2000000476837","","","stimuli/Set_1_rs/013b.jpg","66","","","TL","s","true","s","","","","","","","","","","",""
"image-keyboard-response","120","433243","0.0-2.0-11.0-0.18","1087.1000000238419","","","stimuli/Set_1_rs/141a.jpg","77","","","TF","n","true","n","","","","","","","","","","",""
"image-keyboard-response","121","437746","0.0-2.0-11.0-0.19","1351.1999999284744","","","stimuli/Set_1_rs/156b.jpg","67","","","TL","s","false","o","","","","","","","","","","",""
"image-keyboard-response","122","442249","0.0-2.0-11.0-0.20","1392.7999999523163","","","stimuli/Set_1_rs/024a.jpg","66","","","TR","o","false","s","","","","","","","","","","",""
"image-keyboard-response","123","446752","0.0-2.0-11.0-0.21","1289.8999999761581","","","stimuli/Set_1_rs/046a.jpg","67","","","TR","o","true","o","","","","","","","","","","",""
"image-keyboard-response","124","451255","0.0-2.0-11.0-0.22","1410.5","","","stimuli/Set_1_rs/100b.jpg","66","","","TL","s","true","s","","","","","","","","","","",""
"image-keyboard-response","125","455759","0.0-2.0-11.0-0.23","1067.6999999284744","","","stimuli/Set_1_rs/080a.jpg","77","","","TF","n","true","n","","","","","","","","","","",""
"image-keyboard-response","126","460262","0.0-2.0-11.0-0.24","1443.3000000715256","","","stimuli/Set_1_rs/094b.jpg","66","","","TL","s","true","s","","","","","","","","","","",""
"image-keyboard-response","127","464765","0.0-2.0-11.0-0.25","988.1000000238419","","","stimuli/Set_1_rs/190a.jpg","77","","","TF","n","true","n","","","","","","","","","","",""
"image-keyboard-response","128","469268","0.0-2.0-11.0-0.26","2565.1999999284744","","","stimuli/Set_1_rs/137a.jpg","66","","","TR","o","false","s","","","","","","","","","","",""
"image-keyboard-response","129","473771","0.0-2.0-11.0-0.27","925.8999999761581","","","stimuli/Set_1_rs/180a.jpg","67","","","TR","o","true","o","","","","","","","","","","",""
"image-keyboard-response","130","478274","0.0-2.0-11.0-0.28","1223.1000000238419","","","stimuli/Set_1_rs/134b.jpg","66","","","TL","s","true","s","","","","","","","","","","",""
"image-keyboard-response","131","482778","0.0-2.0-11.0-0.29","1327.6000000238419","","","stimuli/Set_1_rs/088a.jpg","77","","","TF","n","true","n","","","","","","","","","","",""
"image-keyboard-response","132","487280","0.0-2.0-11.0-0.30","1240.6000000238419","","","stimuli/Set_1_rs/165a.jpg","77","","","TF","n","true","n","","","","","","","","","","",""
"image-keyboard-response","133","491783","0.0-2.0-11.0-0.31","1825.7999999523163","","","stimuli/Set_1_rs/075b.jpg","66","","","TL","s","true","s","","","","","","","","","","",""
"image-keyboard-response","134","496288","0.0-2.0-11.0-0.32","1241","","","stimuli/Set_1_rs/191a.jpg","67","","","TR","o","true","o","","","","","","","","","","",""
"image-keyboard-response","135","500791","0.0-2.0-11.0-0.33","2066","","","stimuli/Set_1_rs/112a.jpg","66","","","TR","o","false","s","","","","","","","","","","",""
"image-keyboard-response","136","505294","0.0-2.0-11.0-0.34","875","","","stimuli/Set_1_rs/171a.jpg","77","","","TF","n","true","n","","","","","","","","","","",""
"image-keyboard-response","137","509797","0.0-2.0-11.0-0.35","1172.1000000238419","","","stimuli/Set_1_rs/021a.jpg","67","","","TR","o","true","o","","","","","","","","","","",""
"image-keyboard-response","138","514300","0.0-2.0-11.0-0.36","2204.7999999523163","","","stimuli/Set_1_rs/157a.jpg","67","","","TR","o","true","o","","","","","","","","","","",""
"image-keyboard-response","139","518803","0.0-2.0-11.0-0.37","1717.5","","","stimuli/Set_1_rs/059b.jpg","67","","","TL","s","false","o","","","","","","","","","","",""
"image-keyboard-response","140","523306","0.0-2.0-11.0-0.38","1518.8999999761581","","","stimuli/Set_1_rs/153a.jpg","67","","","TR","o","true","o","","","","","","","","","","",""
"image-keyboard-response","141","527810","0.0-2.0-11.0-0.39","839.3999999761581","","","stimuli/Set_1_rs/002a.jpg","77","","","TF","n","true","n","","","","","","","","","","",""
"image-keyboard-response","142","532312","0.0-2.0-11.0-0.40","1392.3999999761581","","","stimuli/Set_1_rs/041a.jpg","77","","","TF","n","true","n","","","","","","","","","","",""
"image-keyboard-response","143","536816","0.0-2.0-11.0-0.41","1145.6000000238419","","","stimuli/Set_1_rs/012b.jpg","66","","","TL","s","true","s","","","","","","","","","","",""
"image-keyboard-response","144","541319","0.0-2.0-11.0-0.42","1938","","","stimuli/Set_1_rs/083b.jpg","67","","","TL","s","false","o","","","","","","","","","","",""
"image-keyboard-response","145","545822","0.0-2.0-11.0-0.43","2027","","","stimuli/Set_1_rs/051a.jpg","77","","","TF","n","true","n","","","","","","","","","","",""
"image-keyboard-response","146","550325","0.0-2.0-11.0-0.44","1123.5","","","stimuli/Set_1_rs/168a.jpg","77","","","TF","n","true","n","","","","","","","","","","",""
"image-keyboard-response","147","554828","0.0-2.0-11.0-0.45","1244.5","","","stimuli/Set_1_rs/155b.jpg","66","","","TL","s","true","s","","","","","","","","","","",""
"image-keyboard-response","148","559330","0.0-2.0-11.0-0.46","1765.6999999284744","","","stimuli/Set_1_rs/045b.jpg","66","","","TL","s","true","s","","","","","","","","","","",""
"image-keyboard-response","149","563833","0.0-2.0-11.0-0.47","1119.2999999523163","","","stimuli/Set_1_rs/031b.jpg","66","","","TL","s","true","s","","","","","","","","","","",""
"image-keyboard-response","150","568336","0.0-2.0-11.0-0.48","1992.5","","","stimuli/Set_1_rs/136a.jpg","67","","","TR","o","true","o","","","","","","","","","","",""
"image-keyboard-response","151","572838","0.0-2.0-11.0-0.49","929.5","","","stimuli/Set_1_rs/053a.jpg","77","","","TF","n","true","n","","","","","","","","","","",""
"image-keyboard-response","152","577341","0.0-2.0-11.0-0.50","1370.7999999523163","","","stimuli/Set_1_rs/061b.jpg","66","","","TL","s","true","s","","","","","","","","","","",""
"image-keyboard-response","153","581845","0.0-2.0-11.0-0.51","1043.7000000476837","","","stimuli/Set_1_rs/062a.jpg","77","","","TF","n","true","n","","","","","","","","","","",""
"image-keyboard-response","154","586347","0.0-2.0-11.0-0.52","1004.3000000715256","","","stimuli/Set_1_rs/009a.jpg","67","","","TR","o","true","o","","","","","","","","","","",""
"image-keyboard-response","155","590851","0.0-2.0-11.0-0.53","1781.5999999046326","","","stimuli/Set_1_rs/099b.jpg","66","","","TL","s","true","s","","","","","","","","","","",""
"image-keyboard-response","156","595354","0.0-2.0-11.0-0.54","1374.2999999523163","","","stimuli/Set_1_rs/030a.jpg","67","","","TR","o","true","o","","","","","","","","","","",""
"image-keyboard-response","157","599857","0.0-2.0-11.0-0.55","1255","","","stimuli/Set_1_rs/029a.jpg","67","","","TR","o","true","o","","","","","","","","","","",""
"image-keyboard-response","158","604359","0.0-2.0-11.0-0.56","1952.3999999761581","","","stimuli/Set_1_rs/140b.jpg","66","","","TL","s","true","s","","","","","","","","","","",""
"image-keyboard-response","159","608863","0.0-2.0-11.0-0.57","937.8999999761581","","","stimuli/Set_1_rs/182a.jpg","77","","","TF","n","true","n","","","","","","","","","","",""
"image-keyboard-response","160","613365","0.0-2.0-11.0-0.58","1634.2999999523163","","","stimuli/Set_1_rs/151a.jpg","77","","","TF","n","true","n","","","","","","","","","","",""
"image-keyboard-response","161","617868","0.0-2.0-11.0-0.59","1387.5","","","stimuli/Set_1_rs/142a.jpg","66","","","TR","o","false","s","","","","","","","","","","",""
"image-keyboard-response","162","622372","0.0-2.0-11.0-0.60","1124.5","","","stimuli/Set_1_rs/070a.jpg","67","","","TR","o","true","o","","","","","","","","","","",""
"image-keyboard-response","163","626874","0.0-2.0-11.0-0.61","893","","","stimuli/Set_1_rs/121a.jpg","77","","","TF","n","true","n","","","","","","","","","","",""
"image-keyboard-response","164","631377","0.0-2.0-11.0-0.62","1302.8999999761581","","","stimuli/Set_1_rs/008b.jpg","66","","","TL","s","true","s","","","","","","","","","","",""
"image-keyboard-response","165","635880","0.0-2.0-11.0-0.63","1247.7999999523163","","","stimuli/Set_1_rs/092b.jpg","66","","","TL","s","true","s","","","","","","","","","","",""
"image-keyboard-response","166","640383","0.0-2.0-11.0-0.64","985.0999999046326","","","stimuli/Set_1_rs/192a.jpg","67","","","TR","o","true","o","","","","","","","","","","",""
"image-keyboard-response","167","644885","0.0-2.0-11.0-0.65","1698.1999999284744","","","stimuli/Set_1_rs/147a.jpg","67","","","TR","o","true","o","","","","","","","","","","",""
"image-keyboard-response","168","649388","0.0-2.0-11.0-0.66","1371.3999999761581","","","stimuli/Set_1_rs/032a.jpg","77","","","TF","n","true","n","","","","","","","","","","",""
"image-keyboard-response","169","653892","0.0-2.0-11.0-0.67","1588.7999999523163","","","stimuli/Set_1_rs/128b.jpg","66","","","TL","s","true","s","","","","","","","","","","",""
"image-keyboard-response","170","658395","0.0-2.0-11.0-0.68","1292.6000000238419","","","stimuli/Set_1_rs/186a.jpg","77","","","TF","n","true","n","","","","","","","","","","",""
"image-keyboard-response","171","662898","0.0-2.0-11.0-0.69","1157.8999999761581","","","stimuli/Set_1_rs/109a.jpg","67","","","TR","o","true","o","","","","","","","","","","",""
"image-keyboard-response","172","667401","0.0-2.0-11.0-0.70","1182.3999999761581","","","stimuli/Set_1_rs/160a.jpg","77","","","TF","n","true","n","","","","","","","","","","",""
"image-keyboard-response","173","671905","0.0-2.0-11.0-0.71","1959.6000000238419","","","stimuli/Set_1_rs/086a.jpg","67","","","TR","o","true","o","","","","","","","","","","",""
"image-keyboard-response","174","676408","0.0-2.0-11.0-0.72","1407.2999999523163","","","stimuli/Set_1_rs/023b.jpg","66","","","TL","s","true","s","","","","","","","","","","",""
"image-keyboard-response","175","680911","0.0-2.0-11.0-0.73","1272.5","","","stimuli/Set_1_rs/114b.jpg","66","","","TL","s","true","s","","","","","","","","","","",""
"image-keyboard-response","176","685414","0.0-2.0-11.0-0.74","1297.6000000238419","","","stimuli/Set_1_rs/033b.jpg","66","","","TL","s","true","s","","","","","","","","","","",""
"image-keyboard-response","177","689917","0.0-2.0-11.0-0.75","1114.6999999284744","","","stimuli/Set_1_rs/010a.jpg","67","","","TR","o","true","o","","","","","","","","","","",""
"image-keyboard-response","178","694420","0.0-2.0-11.0-0.76","2019.3999999761581","","","stimuli/Set_1_rs/150a.jpg","67","","","TR","o","true","o","","","","","","","","","","",""
"image-keyboard-response","179","698923","0.0-2.0-11.0-0.77","1068.6999999284744","","","stimuli/Set_1_rs/038a.jpg","67","","","TR","o","true","o","","","","","","","","","","",""
"image-keyboard-response","180","703425","0.0-2.0-11.0-0.78","1109.6000000238419","","","stimuli/Set_1_rs/022b.jpg","67","","","TL","s","false","o","","","","","","","","","","",""
"image-keyboard-response","181","707928","0.0-2.0-11.0-0.79","1022.9000000953674","","","stimuli/Set_1_rs/018a.jpg","77","","","TF","n","true","n","","","","","","","","","","",""
"image-keyboard-response","182","712431","0.0-2.0-11.0-0.80","1064","","","stimuli/Set_1_rs/081a.jpg","77","","","TF","n","true","n","","","","","","","","","","",""
"image-keyboard-response","183","716935","0.0-2.0-11.0-0.81","1568.6000000238419","","","stimuli/Set_1_rs/107a.jpg","67","","","TR","o","true","o","","","","","","","","","","",""
"image-keyboard-response","184","721437","0.0-2.0-11.0-0.82","1257.3000000715256","","","stimuli/Set_1_rs/101b.jpg","66","","","TL","s","true","s","","","","","","","","","","",""
"image-keyboard-response","185","725940","0.0-2.0-11.0-0.83","1042.8000000715256","","","stimuli/Set_1_rs/178b.jpg","66","","","TL","s","true","s","","","","","","","","","","",""
"image-keyboard-response","186","730443","0.0-2.0-11.0-0.84","1324.1000000238419","","","stimuli/Set_1_rs/103b.jpg","77","","","TL","s","false","n","","","","","","","","","","",""
"image-keyboard-response","187","734946","0.0-2.0-11.0-0.85","1221.2000000476837","","","stimuli/Set_1_rs/116b.jpg","66","","","TL","s","true","s","","","","","","","","","","",""
"image-keyboard-response","188","739449","0.0-2.0-11.0-0.86","1005.8999999761581","","","stimuli/Set_1_rs/122a.jpg","77","","","TF","n","true","n","","","","","","","","","","",""
"image-keyboard-response","189","743953","0.0-2.0-11.0-0.87","1494.6999999284744","","","stimuli/Set_1_rs/044a.jpg","66","","","TR","o","false","s","","","","","","","","","","",""
"image-keyboard-response","190","748456","0.0-2.0-11.0-0.88","1087","","","stimuli/Set_1_rs/049a.jpg","67","","","TR","o","true","o","","","","","","","","","","",""
"image-keyboard-response","191","752959","0.0-2.0-11.0-0.89","1016.1000000238419","","","stimuli/Set_1_rs/118a.jpg","67","","","TR","o","true","o","","","","","","","","","","",""
"image-keyboard-response","192","757462","0.0-2.0-11.0-0.90","977.3000000715256","","","stimuli/Set_1_rs/040a.jpg","67","","","TR","o","true","o","","","","","","","","","","",""
"image-keyboard-response","193","761965","0.0-2.0-11.0-0.91","1881.9000000953674","","","stimuli/Set_1_rs/011b.jpg","66","","","TL","s","true","s","","","","","","","","","","",""
"image-keyboard-response","194","766468","0.0-2.0-11.0-0.92","882.6999999284744","","","stimuli/Set_1_rs/087a.jpg","77","","","TF","n","true","n","","","","","","","","","","",""
"image-keyboard-response","195","770972","0.0-2.0-11.0-0.93","2107.9000000953674","","","stimuli/Set_1_rs/063a.jpg","77","","","TR","o","false","n","","","","","","","","","","",""
"image-keyboard-response","196","775475","0.0-2.0-11.0-0.94","1491.7000000476837","","","stimuli/Set_1_rs/098b.jpg","66","","","TL","s","true","s","","","","","","","","","","",""
"image-keyboard-response","197","779978","0.0-2.0-11.0-0.95","1916.7999999523163","","","stimuli/Set_1_rs/058a.jpg","67","","","TR","o","true","o","","","","","","","","","","",""
"html-keyboard-response","198","790354","0.0-3.0","10374","","","<p>Vége a feladatnak. Köszönjük a részvételt!</p>","32","","","","","","","28","5","1","5","27","2","0","0","34","0.8235294117647058","0.7941176470588235"
