"trial_type","trial_index","time_elapsed","internal_node_id","rt","responses","success","stimulus","key_press","cond","enc_response","condition","correct_response","correct","rec_response","targ_old","targ_sim","targ_new","lure_old","lure_sim","lure_new","foil_old","foil_sim","foil_new","recognition_ratio","ldi"
"pavlovia","0","3","0.0-0.0","","","","","","","","","","","","","","","","","","","","","",""
"survey-multi-choice","1","2447","0.0-1.0","2441.600000000559","{""Q0"":""Igen"",""Q1"":""Igen""}","","","","","","","","","","","","","","","","","","","",""
"survey-text","2","412103","0.0-2.0-0.0","409654.5","{""Q0"":""430442""}","","","","","","","","","","","","","","","","","","","",""
"fullscreen","3","414009","0.0-2.0-1.0","","","true","","","","","","","","","","","","","","","","","","",""
"html-keyboard-response","4","418702","0.0-2.0-2.0","4691.9000000003725","","","<p>Üdvözöljük! Ez a feladat két részből áll, és összesen 10-15 percet vesz igénybe.</p>","32","","","","","","","","","","","","","","","","",""
"html-keyboard-response","5","447821","0.0-2.0-3.0-0.0","29117.099999999627","","","<p>Az első részben tárgyakat lát majd a képernyőn, egymás után fognak megjelenni.<br>Az Ön feladata eldönteni, hogy a tárgyak <i>beltéri vagy kültéri</i> tárgyak-e.</p>						   <p>Amennyiben a tárgyat általában beltéren látja, nyomja le a <b>C</b> billentyűt. Amennyiben a tárgyat általában kültéren látja, nyomja le az <b>M</b> billentyűt.</p>						   <p>Ebben a feladatban nincsen mindig egyértelműen jó megoldás. Válaszoljon legjobb tudása szerint. A válaszadásra 2 másodperce lesz.","32","","","","","","","","","","","","","","","","",""
"html-keyboard-response","6","449823","0.0-2.0-3.0-1.0","null","","","<p>Kezdődik a gyakorlás...</p>","null","","","","","","","","","","","","","","","","",""
"image-keyboard-response","7","451826","0.0-2.0-4.0-0.0","1051.2999999998137","","","stimuli/Set_2_rs/165b.jpg","77","-","outdoor","","","","","","","","","","","","","","",""
"html-keyboard-response","8","453997","0.0-2.0-4.0-1.0","1667.9000000003725","","","<p>Az Ön válasza:</p><p>Kültéri.</p>","32","","","","","","","","","","","","","","","","",""
"image-keyboard-response","9","455999","0.0-2.0-4.0-0.1","814.5999999996275","","","stimuli/Set_2_rs/034a.jpg","67","-","indoor","","","","","","","","","","","","","","",""
"html-keyboard-response","10","457213","0.0-2.0-4.0-1.1","712.5","","","<p>Az Ön válasza:</p><p>Beltéri.</p>","32","","","","","","","","","","","","","","","","",""
"image-keyboard-response","11","459215","0.0-2.0-4.0-0.2","958.2000000001863","","","stimuli/Set_2_rs/049a.jpg","67","SL","indoor","","","","","","","","","","","","","","",""
"html-keyboard-response","12","460557","0.0-2.0-4.0-1.2","839.1000000005588","","","<p>Az Ön válasza:</p><p>Beltéri.</p>","32","","","","","","","","","","","","","","","","",""
"image-keyboard-response","13","462559","0.0-2.0-4.0-0.3","null","","","stimuli/Set_2_rs/028a.jpg","null","SR","null","","","","","","","","","","","","","","",""
"html-keyboard-response","14","464477","0.0-2.0-4.0-1.3","1416.0999999996275","","","<p>Az Ön válasza:</p><p>Nem adott választ.</p>","32","","","","","","","","","","","","","","","","",""
"image-keyboard-response","15","466480","0.0-2.0-4.0-0.4","1054","","","stimuli/Set_2_rs/135a.jpg","67","SL","indoor","","","","","","","","","","","","","","",""
"html-keyboard-response","16","467773","0.0-2.0-4.0-1.4","790.5999999996275","","","<p>Az Ön válasza:</p><p>Beltéri.</p>","32","","","","","","","","","","","","","","","","",""
"image-keyboard-response","17","469776","0.0-2.0-4.0-0.5","1166.3999999994412","","","stimuli/Set_2_rs/137a.jpg","67","SR","indoor","","","","","","","","","","","","","","",""
"html-keyboard-response","18","470669","0.0-2.0-4.0-1.5","392","","","<p>Az Ön válasza:</p><p>Beltéri.</p>","32","","","","","","","","","","","","","","","","",""
"html-keyboard-response","19","471325","0.0-2.0-5.0-0.0","654.9000000003725","","","<p>Ez volt a gyakorlás. A feladat következik. A feladat alatt már nem kap visszajelzést.</p>","32","","","","","","","","","","","","","","","","",""
"html-keyboard-response","20","473327","0.0-2.0-5.0-1.0","null","","","<p>Kezdődik a feladat...</p>","null","","","","","","","","","","","","","","","","",""
"image-keyboard-response","21","475830","0.0-2.0-6.0-0.0","1340.0999999996275","","","stimuli/Set_1_rs/157a.jpg","77","","outdoor","SR","","","","","","","","","","","","","",""
"image-keyboard-response","22","478332","0.0-2.0-6.0-0.1","917","","","stimuli/Set_1_rs/009a.jpg","67","","indoor","SR","","","","","","","","","","","","","",""
"image-keyboard-response","23","480835","0.0-2.0-6.0-0.2","1294.7000000001863","","","stimuli/Set_1_rs/059a.jpg","67","","indoor","SL","","","","","","","","","","","","","",""
"image-keyboard-response","24","483336","0.0-2.0-6.0-0.3","1096.7000000001863","","","stimuli/Set_1_rs/024a.jpg","77","","outdoor","SR","","","","","","","","","","","","","",""
"image-keyboard-response","25","485838","0.0-2.0-6.0-0.4","1411.2999999998137","","","stimuli/Set_1_rs/101a.jpg","67","","indoor","SL","","","","","","","","","","","","","",""
"image-keyboard-response","26","488341","0.0-2.0-6.0-0.5","1116.4000000003725","","","stimuli/Set_1_rs/137a.jpg","77","","outdoor","SR","","","","","","","","","","","","","",""
"image-keyboard-response","27","490843","0.0-2.0-6.0-0.6","1334.5","","","stimuli/Set_1_rs/011a.jpg","67","","indoor","SL","","","","","","","","","","","","","",""
"image-keyboard-response","28","493346","0.0-2.0-6.0-0.7","1088.3999999994412","","","stimuli/Set_1_rs/128a.jpg","67","","indoor","SL","","","","","","","","","","","","","",""
"image-keyboard-response","29","495849","0.0-2.0-6.0-0.8","1097.2000000001863","","","stimuli/Set_1_rs/083a.jpg","77","","outdoor","SL","","","","","","","","","","","","","",""
"image-keyboard-response","30","498352","0.0-2.0-6.0-0.9","1377.3999999994412","","","stimuli/Set_1_rs/136a.jpg","67","","indoor","SR","","","","","","","","","","","","","",""
"image-keyboard-response","31","500854","0.0-2.0-6.0-0.10","795.7999999998137","","","stimuli/Set_1_rs/103a.jpg","67","","indoor","SL","","","","","","","","","","","","","",""
"image-keyboard-response","32","503356","0.0-2.0-6.0-0.11","933.6000000005588","","","stimuli/Set_1_rs/086a.jpg","67","","indoor","SR","","","","","","","","","","","","","",""
"image-keyboard-response","33","505858","0.0-2.0-6.0-0.12","1407.5","","","stimuli/Set_1_rs/099a.jpg","77","","outdoor","SL","","","","","","","","","","","","","",""
"image-keyboard-response","34","508360","0.0-2.0-6.0-0.13","1369.5999999996275","","","stimuli/Set_1_rs/178a.jpg","67","","indoor","SL","","","","","","","","","","","","","",""
"image-keyboard-response","35","510861","0.0-2.0-6.0-0.14","1299.699999999255","","","stimuli/Set_1_rs/134a.jpg","67","","indoor","SL","","","","","","","","","","","","","",""
"image-keyboard-response","36","513364","0.0-2.0-6.0-0.15","1278.1000000005588","","","stimuli/Set_1_rs/156a.jpg","67","","indoor","SL","","","","","","","","","","","","","",""
"image-keyboard-response","37","515865","0.0-2.0-6.0-0.16","807.8999999994412","","","stimuli/Set_1_rs/054a.jpg","77","","outdoor","SR","","","","","","","","","","","","","",""
"image-keyboard-response","38","518368","0.0-2.0-6.0-0.17","993.6999999992549","","","stimuli/Set_1_rs/092a.jpg","77","","outdoor","SL","","","","","","","","","","","","","",""
"image-keyboard-response","39","520869","0.0-2.0-6.0-0.18","1467.5","","","stimuli/Set_1_rs/031a.jpg","67","","indoor","SL","","","","","","","","","","","","","",""
"image-keyboard-response","40","523372","0.0-2.0-6.0-0.19","1173.7999999998137","","","stimuli/Set_1_rs/013a.jpg","67","","indoor","SL","","","","","","","","","","","","","",""
"image-keyboard-response","41","525874","0.0-2.0-6.0-0.20","1631.7999999998137","","","stimuli/Set_1_rs/075a.jpg","77","","outdoor","SL","","","","","","","","","","","","","",""
"image-keyboard-response","42","528377","0.0-2.0-6.0-0.21","1593.5","","","stimuli/Set_1_rs/150a.jpg","67","","indoor","SR","","","","","","","","","","","","","",""
"image-keyboard-response","43","530878","0.0-2.0-6.0-0.22","994.5999999996275","","","stimuli/Set_1_rs/094a.jpg","67","","indoor","SL","","","","","","","","","","","","","",""
"image-keyboard-response","44","533381","0.0-2.0-6.0-0.23","764.9000000003725","","","stimuli/Set_1_rs/090a.jpg","77","","outdoor","SL","","","","","","","","","","","","","",""
"image-keyboard-response","45","535882","0.0-2.0-6.0-0.24","1126.6000000005588","","","stimuli/Set_1_rs/192a.jpg","77","","outdoor","SR","","","","","","","","","","","","","",""
"image-keyboard-response","46","538385","0.0-2.0-6.0-0.25","1776.4000000003725","","","stimuli/Set_1_rs/116a.jpg","67","","indoor","SL","","","","","","","","","","","","","",""
"image-keyboard-response","47","540887","0.0-2.0-6.0-0.26","1434.4000000003725","","","stimuli/Set_1_rs/044a.jpg","67","","indoor","SR","","","","","","","","","","","","","",""
"image-keyboard-response","48","543389","0.0-2.0-6.0-0.27","1604.4000000003725","","","stimuli/Set_1_rs/114a.jpg","77","","outdoor","SL","","","","","","","","","","","","","",""
"image-keyboard-response","49","545891","0.0-2.0-6.0-0.28","1262","","","stimuli/Set_1_rs/112a.jpg","67","","indoor","SR","","","","","","","","","","","","","",""
"image-keyboard-response","50","548394","0.0-2.0-6.0-0.29","1511.4000000003725","","","stimuli/Set_1_rs/052a.jpg","77","","outdoor","SL","","","","","","","","","","","","","",""
"image-keyboard-response","51","550896","0.0-2.0-6.0-0.30","1697.1000000005588","","","stimuli/Set_1_rs/058a.jpg","77","","outdoor","SR","","","","","","","","","","","","","",""
"image-keyboard-response","52","553398","0.0-2.0-6.0-0.31","1578.699999999255","","","stimuli/Set_1_rs/023a.jpg","77","","outdoor","SL","","","","","","","","","","","","","",""
"image-keyboard-response","53","555901","0.0-2.0-6.0-0.32","1604.8999999994412","","","stimuli/Set_1_rs/030a.jpg","67","","indoor","SR","","","","","","","","","","","","","",""
"image-keyboard-response","54","558404","0.0-2.0-6.0-0.33","1421.4000000003725","","","stimuli/Set_1_rs/091a.jpg","67","","indoor","SR","","","","","","","","","","","","","",""
"image-keyboard-response","55","560906","0.0-2.0-6.0-0.34","1495","","","stimuli/Set_1_rs/147a.jpg","77","","outdoor","SR","","","","","","","","","","","","","",""
"image-keyboard-response","56","563408","0.0-2.0-6.0-0.35","865.2999999998137","","","stimuli/Set_1_rs/063a.jpg","77","","outdoor","SR","","","","","","","","","","","","","",""
"image-keyboard-response","57","565910","0.0-2.0-6.0-0.36","1082.7000000001863","","","stimuli/Set_1_rs/040a.jpg","77","","outdoor","SR","","","","","","","","","","","","","",""
"image-keyboard-response","58","568413","0.0-2.0-6.0-0.37","1252.1000000005588","","","stimuli/Set_1_rs/038a.jpg","77","","outdoor","SR","","","","","","","","","","","","","",""
"image-keyboard-response","59","570915","0.0-2.0-6.0-0.38","1150","","","stimuli/Set_1_rs/100a.jpg","67","","indoor","SL","","","","","","","","","","","","","",""
"image-keyboard-response","60","573417","0.0-2.0-6.0-0.39","936.2000000001863","","","stimuli/Set_1_rs/109a.jpg","67","","indoor","SR","","","","","","","","","","","","","",""
"image-keyboard-response","61","575919","0.0-2.0-6.0-0.40","994.2000000001863","","","stimuli/Set_1_rs/191a.jpg","67","","indoor","SR","","","","","","","","","","","","","",""
"image-keyboard-response","62","578421","0.0-2.0-6.0-0.41","1083.2999999998137","","","stimuli/Set_1_rs/061a.jpg","77","","outdoor","SL","","","","","","","","","","","","","",""
"image-keyboard-response","63","580923","0.0-2.0-6.0-0.42","1029.7999999998137","","","stimuli/Set_1_rs/162a.jpg","67","","indoor","SR","","","","","","","","","","","","","",""
"image-keyboard-response","64","583425","0.0-2.0-6.0-0.43","1359.9000000003725","","","stimuli/Set_1_rs/046a.jpg","67","","indoor","SR","","","","","","","","","","","","","",""
"image-keyboard-response","65","585927","0.0-2.0-6.0-0.44","969.8999999994412","","","stimuli/Set_1_rs/155a.jpg","77","","outdoor","SL","","","","","","","","","","","","","",""
"image-keyboard-response","66","588430","0.0-2.0-6.0-0.45","1091.5999999996275","","","stimuli/Set_1_rs/010a.jpg","77","","outdoor","SR","","","","","","","","","","","","","",""
"image-keyboard-response","67","590933","0.0-2.0-6.0-0.46","876.5999999996275","","","stimuli/Set_1_rs/142a.jpg","77","","outdoor","SR","","","","","","","","","","","","","",""
"image-keyboard-response","68","593435","0.0-2.0-6.0-0.47","1222.2000000001863","","","stimuli/Set_1_rs/045a.jpg","77","","outdoor","SL","","","","","","","","","","","","","",""
"image-keyboard-response","69","595937","0.0-2.0-6.0-0.48","879.7999999998137","","","stimuli/Set_1_rs/070a.jpg","77","","outdoor","SR","","","","","","","","","","","","","",""
"image-keyboard-response","70","598440","0.0-2.0-6.0-0.49","1305.2000000001863","","","stimuli/Set_1_rs/022a.jpg","77","","outdoor","SL","","","","","","","","","","","","","",""
"image-keyboard-response","71","600942","0.0-2.0-6.0-0.50","1154.7000000001863","","","stimuli/Set_1_rs/021a.jpg","77","","outdoor","SR","","","","","","","","","","","","","",""
"image-keyboard-response","72","603444","0.0-2.0-6.0-0.51","1900.4000000003725","","","stimuli/Set_1_rs/098a.jpg","67","","indoor","SL","","","","","","","","","","","","","",""
"image-keyboard-response","73","605946","0.0-2.0-6.0-0.52","774.4000000003725","","","stimuli/Set_1_rs/008a.jpg","67","","indoor","SL","","","","","","","","","","","","","",""
"image-keyboard-response","74","608449","0.0-2.0-6.0-0.53","1023.9000000003725","","","stimuli/Set_1_rs/012a.jpg","67","","indoor","SL","","","","","","","","","","","","","",""
"image-keyboard-response","75","610951","0.0-2.0-6.0-0.54","666","","","stimuli/Set_1_rs/153a.jpg","77","","outdoor","SR","","","","","","","","","","","","","",""
"image-keyboard-response","76","613453","0.0-2.0-6.0-0.55","1507.3999999994412","","","stimuli/Set_1_rs/068a.jpg","77","","outdoor","SL","","","","","","","","","","","","","",""
"image-keyboard-response","77","615955","0.0-2.0-6.0-0.56","1021.6999999992549","","","stimuli/Set_1_rs/140a.jpg","67","","indoor","SL","","","","","","","","","","","","","",""
"image-keyboard-response","78","618458","0.0-2.0-6.0-0.57","1287.5","","","stimuli/Set_1_rs/029a.jpg","67","","indoor","SR","","","","","","","","","","","","","",""
"image-keyboard-response","79","620961","0.0-2.0-6.0-0.58","1169.1000000005588","","","stimuli/Set_1_rs/049a.jpg","77","","outdoor","SR","","","","","","","","","","","","","",""
"image-keyboard-response","80","623462","0.0-2.0-6.0-0.59","906","","","stimuli/Set_1_rs/180a.jpg","67","","indoor","SR","","","","","","","","","","","","","",""
"image-keyboard-response","81","625965","0.0-2.0-6.0-0.60","1044.1000000005588","","","stimuli/Set_1_rs/033a.jpg","67","","indoor","SL","","","","","","","","","","","","","",""
"image-keyboard-response","82","628468","0.0-2.0-6.0-0.61","1805.2000000001863","","","stimuli/Set_1_rs/119a.jpg","77","","outdoor","SL","","","","","","","","","","","","","",""
"image-keyboard-response","83","630970","0.0-2.0-6.0-0.62","1494","","","stimuli/Set_1_rs/118a.jpg","77","","outdoor","SR","","","","","","","","","","","","","",""
"image-keyboard-response","84","633473","0.0-2.0-6.0-0.63","1728.2999999998137","","","stimuli/Set_1_rs/107a.jpg","67","","indoor","SR","","","","","","","","","","","","","",""
"html-keyboard-response","85","654411","0.0-2.0-7.0","20938","","","<p>Vége a feladat első részének. Tartson egy pár perces szünetet.</p>","32","","","","","","","","","","","","","","","","",""
"html-keyboard-response","86","681275","0.0-2.0-8.0-0.0","26862.900000000373","","","<p>A következőkben ismét tárgyak jelennek majd meg a képernyőn, egymás után.<br>Az Ön feladata eldönteni, látta-e már ezeket a tárgyakat a vizsgálat első felében.</p>		        			<p>Amennyiben pontosan ugyanezt a tárgyat látta (a tárgy <i>régi</i>), nyomja le a <b>C</b> billentyűt.</p>		        			<p>Amennyiben hasonló tárgyat látott (a tárgy <i>hasonló</i>), nyomja le a <b>B</b> billentyűt.</p>		        			<p>Amennyiben nem látta ezt a tárgyat az első részben (a tárgy <i>új</i>), nyomja le az <b>M</b> billentyűt.</p>","32","","","","","","","","","","","","","","","","",""
"html-keyboard-response","87","683277","0.0-2.0-8.0-1.0","null","","","<p>Kezdődik a gyakorlás...</p>","null","","","","","","","","","","","","","","","","",""
"image-keyboard-response","88","687281","0.0-2.0-9.0-0.0","1355","","","stimuli/Set_2_rs/049b.jpg","66","","","TL","l","false","s","","","","","","","","","","",""
"html-keyboard-response","89","690859","0.0-2.0-9.0-1.0","3576","","","<p>A helyes válasz: Hasonló.</p><p>Az Ön válasza: Hasonló.</p>","32","","","","","","","","","","","","","","","","",""
"image-keyboard-response","90","694862","0.0-2.0-9.0-0.1","2462","","","stimuli/Set_2_rs/018b.jpg","66","","","TF","n","false","s","","","","","","","","","","",""
"html-keyboard-response","91","748107","0.0-2.0-9.0-1.1","53243.09999999963","","","<p>A helyes válasz: Új.</p><p>Az Ön válasza: Hasonló.</p>","32","","","","","","","","","","","","","","","","",""
"image-keyboard-response","92","752110","0.0-2.0-9.0-0.2","1885","","","stimuli/Set_2_rs/028a.jpg","66","","","TR","o","false","s","","","","","","","","","","",""
"html-keyboard-response","93","754538","0.0-2.0-9.0-1.2","2427","","","<p>A helyes válasz: Régi.</p><p>Az Ön válasza: Hasonló.</p>","32","","","","","","","","","","","","","","","","",""
"image-keyboard-response","94","758541","0.0-2.0-9.0-0.3","877.7999999998137","","","stimuli/Set_2_rs/137a.jpg","67","","","TR","o","true","o","","","","","","","","","","",""
"html-keyboard-response","95","759818","0.0-2.0-9.0-1.3","1275.5","","","<p>A helyes válasz: Régi.</p><p>Az Ön válasza: Régi.</p>","32","","","","","","","","","","","","","","","","",""
"image-keyboard-response","96","763821","0.0-2.0-9.0-0.4","2557.7999999998137","","","stimuli/Set_2_rs/135b.jpg","66","","","TL","l","false","s","","","","","","","","","","",""
"html-keyboard-response","97","764762","0.0-2.0-9.0-1.4","940","","","<p>A helyes válasz: Hasonló.</p><p>Az Ön válasza: Hasonló.</p>","32","","","","","","","","","","","","","","","","",""
"image-keyboard-response","98","768765","0.0-2.0-9.0-0.5","1614.0999999996275","","","stimuli/Set_2_rs/019a.jpg","77","","","TF","n","true","n","","","","","","","","","","",""
"html-keyboard-response","99","769642","0.0-2.0-9.0-1.5","876","","","<p>A helyes válasz: Új.</p><p>Az Ön válasza: Új.</p>","32","","","","","","","","","","","","","","","","",""
"html-keyboard-response","100","771626","0.0-2.0-10.0-0.0","1983","","","<p>Ez volt a gyakorlás. A feladat következik. A feladat alatt már nem kap visszajelzést.</p>","32","","","","","","","","","","","","","","","","",""
"html-keyboard-response","101","773628","0.0-2.0-10.0-1.0","null","","","<p>Kezdődik a feladat...</p>","null","","","","","","","","","","","","","","","","",""
"image-keyboard-response","102","778131","0.0-2.0-11.0-0.0","2156.0999999996275","","","stimuli/Set_1_rs/181a.jpg","77","","","TF","n","true","n","","","","","","","","","","",""
"image-keyboard-response","103","782633","0.0-2.0-11.0-0.1","1124.9000000003725","","","stimuli/Set_1_rs/152a.jpg","77","","","TF","n","true","n","","","","","","","","","","",""
"image-keyboard-response","104","787137","0.0-2.0-11.0-0.2","1358","","","stimuli/Set_1_rs/090b.jpg","66","","","TL","s","true","s","","","","","","","","","","",""
"image-keyboard-response","105","791640","0.0-2.0-11.0-0.3","1846.5","","","stimuli/Set_1_rs/126a.jpg","77","","","TF","n","true","n","","","","","","","","","","",""
"image-keyboard-response","106","796144","0.0-2.0-11.0-0.4","1678.8999999994412","","","stimuli/Set_1_rs/068b.jpg","66","","","TL","s","true","s","","","","","","","","","","",""
"image-keyboard-response","107","800646","0.0-2.0-11.0-0.5","1463.7000000001863","","","stimuli/Set_1_rs/054a.jpg","67","","","TR","o","true","o","","","","","","","","","","",""
"image-keyboard-response","108","805149","0.0-2.0-11.0-0.6","1120.8999999994412","","","stimuli/Set_1_rs/162a.jpg","67","","","TR","o","true","o","","","","","","","","","","",""
"image-keyboard-response","109","809653","0.0-2.0-11.0-0.7","1625.9000000003725","","","stimuli/Set_1_rs/019a.jpg","77","","","TF","n","true","n","","","","","","","","","","",""
"image-keyboard-response","110","814158","0.0-2.0-11.0-0.8","2450.7999999998137","","","stimuli/Set_1_rs/119b.jpg","66","","","TL","s","true","s","","","","","","","","","","",""
"image-keyboard-response","111","818661","0.0-2.0-11.0-0.9","1226.2999999998137","","","stimuli/Set_1_rs/052b.jpg","67","","","TL","s","false","o","","","","","","","","","","",""
"image-keyboard-response","112","823164","0.0-2.0-11.0-0.10","1202.8999999994412","","","stimuli/Set_1_rs/135a.jpg","77","","","TF","n","true","n","","","","","","","","","","",""
"image-keyboard-response","113","827668","0.0-2.0-11.0-0.11","1547.6000000005588","","","stimuli/Set_1_rs/004a.jpg","77","","","TF","n","true","n","","","","","","","","","","",""
"image-keyboard-response","114","832172","0.0-2.0-11.0-0.12","2883.5999999996275","","","stimuli/Set_1_rs/072a.jpg","77","","","TF","n","true","n","","","","","","","","","","",""
"image-keyboard-response","115","836674","0.0-2.0-11.0-0.13","2284.4000000003725","","","stimuli/Set_1_rs/028a.jpg","77","","","TF","n","true","n","","","","","","","","","","",""
"image-keyboard-response","116","841177","0.0-2.0-11.0-0.14","1285.7999999998137","","","stimuli/Set_1_rs/091a.jpg","67","","","TR","o","true","o","","","","","","","","","","",""
"image-keyboard-response","117","845679","0.0-2.0-11.0-0.15","2175","","","stimuli/Set_1_rs/108a.jpg","77","","","TF","n","true","n","","","","","","","","","","",""
"image-keyboard-response","118","850182","0.0-2.0-11.0-0.16","3464.4000000003725","","","stimuli/Set_1_rs/146a.jpg","66","","","TF","n","false","s","","","","","","","","","","",""
"image-keyboard-response","119","854685","0.0-2.0-11.0-0.17","1585.800000000745","","","stimuli/Set_1_rs/013b.jpg","66","","","TL","s","true","s","","","","","","","","","","",""
"image-keyboard-response","120","859188","0.0-2.0-11.0-0.18","2603.300000000745","","","stimuli/Set_1_rs/141a.jpg","77","","","TF","n","true","n","","","","","","","","","","",""
"image-keyboard-response","121","863691","0.0-2.0-11.0-0.19","2995.100000000559","","","stimuli/Set_1_rs/156b.jpg","66","","","TL","s","true","s","","","","","","","","","","",""
"image-keyboard-response","122","868195","0.0-2.0-11.0-0.20","1132.3999999994412","","","stimuli/Set_1_rs/024a.jpg","67","","","TR","o","true","o","","","","","","","","","","",""
"image-keyboard-response","123","872698","0.0-2.0-11.0-0.21","2677.0999999996275","","","stimuli/Set_1_rs/046a.jpg","66","","","TR","o","false","s","","","","","","","","","","",""
"image-keyboard-response","124","877200","0.0-2.0-11.0-0.22","1102.2000000001863","","","stimuli/Set_1_rs/100b.jpg","77","","","TL","s","false","n","","","","","","","","","","",""
"image-keyboard-response","125","881703","0.0-2.0-11.0-0.23","1383.4000000003725","","","stimuli/Set_1_rs/080a.jpg","77","","","TF","n","true","n","","","","","","","","","","",""
"image-keyboard-response","126","886206","0.0-2.0-11.0-0.24","2609.2000000001863","","","stimuli/Set_1_rs/094b.jpg","67","","","TL","s","false","o","","","","","","","","","","",""
"image-keyboard-response","127","890709","0.0-2.0-11.0-0.25","2617.9000000003725","","","stimuli/Set_1_rs/190a.jpg","77","","","TF","n","true","n","","","","","","","","","","",""
"image-keyboard-response","128","895211","0.0-2.0-11.0-0.26","1266.5999999996275","","","stimuli/Set_1_rs/137a.jpg","67","","","TR","o","true","o","","","","","","","","","","",""
"image-keyboard-response","129","899714","0.0-2.0-11.0-0.27","1388.199999999255","","","stimuli/Set_1_rs/180a.jpg","67","","","TR","o","true","o","","","","","","","","","","",""
"image-keyboard-response","130","904218","0.0-2.0-11.0-0.28","null","","","stimuli/Set_1_rs/134b.jpg","null","","","TL","s","false","null","","","","","","","","","","",""
"image-keyboard-response","131","908720","0.0-2.0-11.0-0.29","1022.0999999996275","","","stimuli/Set_1_rs/088a.jpg","66","","","TF","n","false","s","","","","","","","","","","",""
"image-keyboard-response","132","913224","0.0-2.0-11.0-0.30","1095.0999999996275","","","stimuli/Set_1_rs/165a.jpg","77","","","TF","n","true","n","","","","","","","","","","",""
"image-keyboard-response","133","917727","0.0-2.0-11.0-0.31","2495.5","","","stimuli/Set_1_rs/075b.jpg","66","","","TL","s","true","s","","","","","","","","","","",""
"image-keyboard-response","134","922232","0.0-2.0-11.0-0.32","1158","","","stimuli/Set_1_rs/191a.jpg","67","","","TR","o","true","o","","","","","","","","","","",""
"image-keyboard-response","135","926735","0.0-2.0-11.0-0.33","1039.2000000001863","","","stimuli/Set_1_rs/112a.jpg","67","","","TR","o","true","o","","","","","","","","","","",""
"image-keyboard-response","136","931238","0.0-2.0-11.0-0.34","1320.2000000001863","","","stimuli/Set_1_rs/171a.jpg","77","","","TF","n","true","n","","","","","","","","","","",""
"image-keyboard-response","137","935741","0.0-2.0-11.0-0.35","961.6000000005588","","","stimuli/Set_1_rs/021a.jpg","67","","","TR","o","true","o","","","","","","","","","","",""
"image-keyboard-response","138","940243","0.0-2.0-11.0-0.36","1978.7000000001863","","","stimuli/Set_1_rs/157a.jpg","66","","","TR","o","false","s","","","","","","","","","","",""
"image-keyboard-response","139","944746","0.0-2.0-11.0-0.37","1251.8999999994412","","","stimuli/Set_1_rs/059b.jpg","67","","","TL","s","false","o","","","","","","","","","","",""
"image-keyboard-response","140","949249","0.0-2.0-11.0-0.38","1308.699999999255","","","stimuli/Set_1_rs/153a.jpg","67","","","TR","o","true","o","","","","","","","","","","",""
"image-keyboard-response","141","953752","0.0-2.0-11.0-0.39","1222.2999999998137","","","stimuli/Set_1_rs/002a.jpg","77","","","TF","n","true","n","","","","","","","","","","",""
"image-keyboard-response","142","958255","0.0-2.0-11.0-0.40","1775","","","stimuli/Set_1_rs/041a.jpg","77","","","TF","n","true","n","","","","","","","","","","",""
"image-keyboard-response","143","962758","0.0-2.0-11.0-0.41","1496","","","stimuli/Set_1_rs/012b.jpg","66","","","TL","s","true","s","","","","","","","","","","",""
"image-keyboard-response","144","967262","0.0-2.0-11.0-0.42","1536.7999999998137","","","stimuli/Set_1_rs/083b.jpg","67","","","TL","s","false","o","","","","","","","","","","",""
"image-keyboard-response","145","971765","0.0-2.0-11.0-0.43","1913.2000000001863","","","stimuli/Set_1_rs/051a.jpg","77","","","TF","n","true","n","","","","","","","","","","",""
"image-keyboard-response","146","976268","0.0-2.0-11.0-0.44","1106.2000000001863","","","stimuli/Set_1_rs/168a.jpg","77","","","TF","n","true","n","","","","","","","","","","",""
"image-keyboard-response","147","980771","0.0-2.0-11.0-0.45","1707.4000000003725","","","stimuli/Set_1_rs/155b.jpg","66","","","TL","s","true","s","","","","","","","","","","",""
"image-keyboard-response","148","985274","0.0-2.0-11.0-0.46","1363.9000000003725","","","stimuli/Set_1_rs/045b.jpg","66","","","TL","s","true","s","","","","","","","","","","",""
"image-keyboard-response","149","989777","0.0-2.0-11.0-0.47","1276.5999999996275","","","stimuli/Set_1_rs/031b.jpg","66","","","TL","s","true","s","","","","","","","","","","",""
"image-keyboard-response","150","994281","0.0-2.0-11.0-0.48","1285.800000000745","","","stimuli/Set_1_rs/136a.jpg","67","","","TR","o","true","o","","","","","","","","","","",""
"image-keyboard-response","151","998783","0.0-2.0-11.0-0.49","3133.899999999441","","","stimuli/Set_1_rs/053a.jpg","77","","","TF","n","true","n","","","","","","","","","","",""
"image-keyboard-response","152","1003286","0.0-2.0-11.0-0.50","1607.1000000005588","","","stimuli/Set_1_rs/061b.jpg","66","","","TL","s","true","s","","","","","","","","","","",""
"image-keyboard-response","153","1007789","0.0-2.0-11.0-0.51","1280.6000000005588","","","stimuli/Set_1_rs/062a.jpg","77","","","TF","n","true","n","","","","","","","","","","",""
"image-keyboard-response","154","1012291","0.0-2.0-11.0-0.52","2057.5999999996275","","","stimuli/Set_1_rs/009a.jpg","67","","","TR","o","true","o","","","","","","","","","","",""
"image-keyboard-response","155","1016795","0.0-2.0-11.0-0.53","2291","","","stimuli/Set_1_rs/099b.jpg","66","","","TL","s","true","s","","","","","","","","","","",""
"image-keyboard-response","156","1021298","0.0-2.0-11.0-0.54","1499.4000000003725","","","stimuli/Set_1_rs/030a.jpg","67","","","TR","o","true","o","","","","","","","","","","",""
"image-keyboard-response","157","1025801","0.0-2.0-11.0-0.55","2387.9000000003725","","","stimuli/Set_1_rs/029a.jpg","67","","","TR","o","true","o","","","","","","","","","","",""
"image-keyboard-response","158","1030304","0.0-2.0-11.0-0.56","1389","","","stimuli/Set_1_rs/140b.jpg","66","","","TL","s","true","s","","","","","","","","","","",""
"image-keyboard-response","159","1034807","0.0-2.0-11.0-0.57","1190","","","stimuli/Set_1_rs/182a.jpg","77","","","TF","n","true","n","","","","","","","","","","",""
"image-keyboard-response","160","1039310","0.0-2.0-11.0-0.58","1631.5","","","stimuli/Set_1_rs/151a.jpg","77","","","TF","n","true","n","","","","","","","","","","",""
"image-keyboard-response","161","1043813","0.0-2.0-11.0-0.59","1527.800000000745","","","stimuli/Set_1_rs/142a.jpg","67","","","TR","o","true","o","","","","","","","","","","",""
"image-keyboard-response","162","1048316","0.0-2.0-11.0-0.60","2752.7999999998137","","","stimuli/Set_1_rs/070a.jpg","66","","","TR","o","false","s","","","","","","","","","","",""
"image-keyboard-response","163","1052819","0.0-2.0-11.0-0.61","1177.6000000005588","","","stimuli/Set_1_rs/121a.jpg","77","","","TF","n","true","n","","","","","","","","","","",""
"image-keyboard-response","164","1057322","0.0-2.0-11.0-0.62","2211","","","stimuli/Set_1_rs/008b.jpg","67","","","TL","s","false","o","","","","","","","","","","",""
"image-keyboard-response","165","1061825","0.0-2.0-11.0-0.63","1340.2000000001863","","","stimuli/Set_1_rs/092b.jpg","66","","","TL","s","true","s","","","","","","","","","","",""
"image-keyboard-response","166","1066327","0.0-2.0-11.0-0.64","1221.5","","","stimuli/Set_1_rs/192a.jpg","67","","","TR","o","true","o","","","","","","","","","","",""
"image-keyboard-response","167","1070831","0.0-2.0-11.0-0.65","1438.7999999998137","","","stimuli/Set_1_rs/147a.jpg","67","","","TR","o","true","o","","","","","","","","","","",""
"image-keyboard-response","168","1075333","0.0-2.0-11.0-0.66","1591.2000000001863","","","stimuli/Set_1_rs/032a.jpg","77","","","TF","n","true","n","","","","","","","","","","",""
"image-keyboard-response","169","1079837","0.0-2.0-11.0-0.67","1504.5","","","stimuli/Set_1_rs/128b.jpg","66","","","TL","s","true","s","","","","","","","","","","",""
"image-keyboard-response","170","1084341","0.0-2.0-11.0-0.68","1129.5","","","stimuli/Set_1_rs/186a.jpg","77","","","TF","n","true","n","","","","","","","","","","",""
"image-keyboard-response","171","1088843","0.0-2.0-11.0-0.69","2081.0999999996275","","","stimuli/Set_1_rs/109a.jpg","67","","","TR","o","true","o","","","","","","","","","","",""
"image-keyboard-response","172","1093347","0.0-2.0-11.0-0.70","1402.4000000003725","","","stimuli/Set_1_rs/160a.jpg","77","","","TF","n","true","n","","","","","","","","","","",""
"image-keyboard-response","173","1097851","0.0-2.0-11.0-0.71","1842.5","","","stimuli/Set_1_rs/086a.jpg","66","","","TR","o","false","s","","","","","","","","","","",""
"image-keyboard-response","174","1102354","0.0-2.0-11.0-0.72","1434.699999999255","","","stimuli/Set_1_rs/023b.jpg","66","","","TL","s","true","s","","","","","","","","","","",""
"image-keyboard-response","175","1106857","0.0-2.0-11.0-0.73","2643.7000000001863","","","stimuli/Set_1_rs/114b.jpg","66","","","TL","s","true","s","","","","","","","","","","",""
"image-keyboard-response","176","1111361","0.0-2.0-11.0-0.74","1036.5","","","stimuli/Set_1_rs/033b.jpg","66","","","TL","s","true","s","","","","","","","","","","",""
"image-keyboard-response","177","1115863","0.0-2.0-11.0-0.75","1989","","","stimuli/Set_1_rs/010a.jpg","67","","","TR","o","true","o","","","","","","","","","","",""
"image-keyboard-response","178","1120366","0.0-2.0-11.0-0.76","1294.5","","","stimuli/Set_1_rs/150a.jpg","67","","","TR","o","true","o","","","","","","","","","","",""
"image-keyboard-response","179","1124869","0.0-2.0-11.0-0.77","983.5","","","stimuli/Set_1_rs/038a.jpg","67","","","TR","o","true","o","","","","","","","","","","",""
"image-keyboard-response","180","1129372","0.0-2.0-11.0-0.78","2192.399999999441","","","stimuli/Set_1_rs/022b.jpg","66","","","TL","s","true","s","","","","","","","","","","",""
"image-keyboard-response","181","1133875","0.0-2.0-11.0-0.79","1081.199999999255","","","stimuli/Set_1_rs/018a.jpg","77","","","TF","n","true","n","","","","","","","","","","",""
"image-keyboard-response","182","1138378","0.0-2.0-11.0-0.80","1042.2999999998137","","","stimuli/Set_1_rs/081a.jpg","77","","","TF","n","true","n","","","","","","","","","","",""
"image-keyboard-response","183","1142881","0.0-2.0-11.0-0.81","1707.0999999996275","","","stimuli/Set_1_rs/107a.jpg","67","","","TR","o","true","o","","","","","","","","","","",""
"image-keyboard-response","184","1147385","0.0-2.0-11.0-0.82","3044.0999999996275","","","stimuli/Set_1_rs/101b.jpg","66","","","TL","s","true","s","","","","","","","","","","",""
"image-keyboard-response","185","1151888","0.0-2.0-11.0-0.83","2348.2000000001863","","","stimuli/Set_1_rs/178b.jpg","66","","","TL","s","true","s","","","","","","","","","","",""
"image-keyboard-response","186","1156392","0.0-2.0-11.0-0.84","1572.3999999994412","","","stimuli/Set_1_rs/103b.jpg","66","","","TL","s","true","s","","","","","","","","","","",""
"image-keyboard-response","187","1160896","0.0-2.0-11.0-0.85","1132.9000000003725","","","stimuli/Set_1_rs/116b.jpg","66","","","TL","s","true","s","","","","","","","","","","",""
"image-keyboard-response","188","1165399","0.0-2.0-11.0-0.86","1237","","","stimuli/Set_1_rs/122a.jpg","66","","","TF","n","false","s","","","","","","","","","","",""
"image-keyboard-response","189","1169903","0.0-2.0-11.0-0.87","3485.600000000559","","","stimuli/Set_1_rs/044a.jpg","77","","","TR","o","false","n","","","","","","","","","","",""
"image-keyboard-response","190","1174407","0.0-2.0-11.0-0.88","3382","","","stimuli/Set_1_rs/049a.jpg","67","","","TR","o","true","o","","","","","","","","","","",""
"image-keyboard-response","191","1178910","0.0-2.0-11.0-0.89","1710.3999999994412","","","stimuli/Set_1_rs/118a.jpg","67","","","TR","o","true","o","","","","","","","","","","",""
"image-keyboard-response","192","1183413","0.0-2.0-11.0-0.90","1063.0999999996275","","","stimuli/Set_1_rs/040a.jpg","67","","","TR","o","true","o","","","","","","","","","","",""
"image-keyboard-response","193","1187917","0.0-2.0-11.0-0.91","2367.600000000559","","","stimuli/Set_1_rs/011b.jpg","67","","","TL","s","false","o","","","","","","","","","","",""
"image-keyboard-response","194","1192420","0.0-2.0-11.0-0.92","952.3999999994412","","","stimuli/Set_1_rs/087a.jpg","77","","","TF","n","true","n","","","","","","","","","","",""
"image-keyboard-response","195","1196923","0.0-2.0-11.0-0.93","1360.7999999998137","","","stimuli/Set_1_rs/063a.jpg","67","","","TR","o","true","o","","","","","","","","","","",""
"image-keyboard-response","196","1201426","0.0-2.0-11.0-0.94","2793.9000000003725","","","stimuli/Set_1_rs/098b.jpg","66","","","TL","s","true","s","","","","","","","","","","",""
"image-keyboard-response","197","1205929","0.0-2.0-11.0-0.95","1026.7999999998137","","","stimuli/Set_1_rs/058a.jpg","67","","","TR","o","true","o","","","","","","","","","","",""
"html-keyboard-response","198","1221463","0.0-3.0","15532.100000000559","","","<p>Vége a feladatnak. Köszönjük a részvételt!</p>","32","","","","","","","28","5","1","6","26","1","0","4","30","0.8235294117647058","0.6702317290552584"
