"trial_type","trial_index","time_elapsed","internal_node_id","rt","responses","success","stimulus","key_press","cond","enc_response","condition","correct_response","correct","rec_response","targ_old","targ_sim","targ_new","lure_old","lure_sim","lure_new","foil_old","foil_sim","foil_new","recognition_ratio","ldi"
"pavlovia","0","3","0.0-0.0","","","","","","","","","","","","","","","","","","","","","",""
"survey-multi-choice","1","7424","0.0-1.0","7418.5","{""Q0"":""Igen"",""Q1"":""Igen""}","","","","","","","","","","","","","","","","","","","",""
"survey-text","2","12963","0.0-2.0-0.0","5536.899999976158","{""Q0"":""658018""}","","","","","","","","","","","","","","","","","","","",""
"fullscreen","3","14962","0.0-2.0-1.0","","","true","","","","","","","","","","","","","","","","","","",""
"html-keyboard-response","4","72039","0.0-2.0-2.0","57074.89999997616","","","<p>Üdvözöljük! Ez a feladat két részből áll, és összesen 10-15 percet vesz igénybe.</p>","32","","","","","","","","","","","","","","","","",""
"html-keyboard-response","5","103925","0.0-2.0-3.0-0.0","31885","","","<p>Az első részben tárgyakat lát majd a képernyőn, egymás után fognak megjelenni.<br>Az Ön feladata eldönteni, hogy a tárgyak <i>beltéri vagy kültéri</i> tárgyak-e.</p>						   <p>Amennyiben a tárgyat általában beltéren látja, nyomja le a <b>C</b> billentyűt. Amennyiben a tárgyat általában kültéren látja, nyomja le az <b>M</b> billentyűt.</p>						   <p>Ebben a feladatban nincsen mindig egyértelműen jó megoldás. Válaszoljon legjobb tudása szerint. A válaszadásra 2 másodperce lesz.","32","","","","","","","","","","","","","","","","",""
"html-keyboard-response","6","105927","0.0-2.0-3.0-1.0","null","","","<p>Kezdődik a gyakorlás...</p>","null","","","","","","","","","","","","","","","","",""
"image-keyboard-response","7","107931","0.0-2.0-4.0-0.0","1083.300000011921","","","stimuli/Set_2_rs/165b.jpg","77","-","outdoor","","","","","","","","","","","","","","",""
"html-keyboard-response","8","111413","0.0-2.0-4.0-1.0","2979.5","","","<p>Az Ön válasza:</p><p>Kültéri.</p>","32","","","","","","","","","","","","","","","","",""
"image-keyboard-response","9","113415","0.0-2.0-4.0-0.1","1181.800000011921","","","stimuli/Set_2_rs/034a.jpg","67","-","indoor","","","","","","","","","","","","","","",""
"html-keyboard-response","10","115557","0.0-2.0-4.0-1.1","1639.7000000476837","","","<p>Az Ön válasza:</p><p>Beltéri.</p>","32","","","","","","","","","","","","","","","","",""
"image-keyboard-response","11","117559","0.0-2.0-4.0-0.2","1358.1000000238419","","","stimuli/Set_2_rs/049a.jpg","77","SL","outdoor","","","","","","","","","","","","","","",""
"html-keyboard-response","12","119732","0.0-2.0-4.0-1.2","1672.3999999761581","","","<p>Az Ön válasza:</p><p>Kültéri.</p>","32","","","","","","","","","","","","","","","","",""
"image-keyboard-response","13","121734","0.0-2.0-4.0-0.3","1294.300000011921","","","stimuli/Set_2_rs/028a.jpg","67","SR","indoor","","","","","","","","","","","","","","",""
"html-keyboard-response","14","123444","0.0-2.0-4.0-1.3","1207.7999999523163","","","<p>Az Ön válasza:</p><p>Beltéri.</p>","32","","","","","","","","","","","","","","","","",""
"image-keyboard-response","15","125446","0.0-2.0-4.0-0.4","1086.3999999761581","","","stimuli/Set_2_rs/135a.jpg","67","SL","indoor","","","","","","","","","","","","","","",""
"html-keyboard-response","16","126772","0.0-2.0-4.0-1.4","823.3000000119209","","","<p>Az Ön válasza:</p><p>Beltéri.</p>","32","","","","","","","","","","","","","","","","",""
"image-keyboard-response","17","128774","0.0-2.0-4.0-0.5","1598.199999988079","","","stimuli/Set_2_rs/137a.jpg","67","SR","indoor","","","","","","","","","","","","","","",""
"html-keyboard-response","18","132628","0.0-2.0-4.0-1.5","3351.199999988079","","","<p>Az Ön válasza:</p><p>Beltéri.</p>","32","","","","","","","","","","","","","","","","",""
"html-keyboard-response","19","148868","0.0-2.0-5.0-0.0","16239.099999964237","","","<p>Ez volt a gyakorlás. A feladat következik. A feladat alatt már nem kap visszajelzést.</p>","32","","","","","","","","","","","","","","","","",""
"html-keyboard-response","20","150870","0.0-2.0-5.0-1.0","null","","","<p>Kezdődik a feladat...</p>","null","","","","","","","","","","","","","","","","",""
"image-keyboard-response","21","153372","0.0-2.0-6.0-0.0","1483.6000000238419","","","stimuli/Set_1_rs/157a.jpg","77","","outdoor","SR","","","","","","","","","","","","","",""
"image-keyboard-response","22","155874","0.0-2.0-6.0-0.1","1302.1000000238419","","","stimuli/Set_1_rs/009a.jpg","67","","indoor","SR","","","","","","","","","","","","","",""
"image-keyboard-response","23","158376","0.0-2.0-6.0-0.2","1808.1000000238419","","","stimuli/Set_1_rs/059a.jpg","67","","indoor","SL","","","","","","","","","","","","","",""
"image-keyboard-response","24","160878","0.0-2.0-6.0-0.3","1225.6000000238419","","","stimuli/Set_1_rs/024a.jpg","77","","outdoor","SR","","","","","","","","","","","","","",""
"image-keyboard-response","25","163380","0.0-2.0-6.0-0.4","1475.699999988079","","","stimuli/Set_1_rs/101a.jpg","67","","indoor","SL","","","","","","","","","","","","","",""
"image-keyboard-response","26","165882","0.0-2.0-6.0-0.5","1214.199999988079","","","stimuli/Set_1_rs/137a.jpg","77","","outdoor","SR","","","","","","","","","","","","","",""
"image-keyboard-response","27","168385","0.0-2.0-6.0-0.6","1912.1000000238419","","","stimuli/Set_1_rs/011a.jpg","77","","outdoor","SL","","","","","","","","","","","","","",""
"image-keyboard-response","28","170887","0.0-2.0-6.0-0.7","1121.5","","","stimuli/Set_1_rs/128a.jpg","67","","indoor","SL","","","","","","","","","","","","","",""
"image-keyboard-response","29","173389","0.0-2.0-6.0-0.8","1834.8999999761581","","","stimuli/Set_1_rs/083a.jpg","67","","indoor","SL","","","","","","","","","","","","","",""
"image-keyboard-response","30","175891","0.0-2.0-6.0-0.9","996.8000000119209","","","stimuli/Set_1_rs/136a.jpg","67","","indoor","SR","","","","","","","","","","","","","",""
"image-keyboard-response","31","178392","0.0-2.0-6.0-0.10","975","","","stimuli/Set_1_rs/103a.jpg","67","","indoor","SL","","","","","","","","","","","","","",""
"image-keyboard-response","32","180895","0.0-2.0-6.0-0.11","1065.699999988079","","","stimuli/Set_1_rs/086a.jpg","67","","indoor","SR","","","","","","","","","","","","","",""
"image-keyboard-response","33","183398","0.0-2.0-6.0-0.12","1602.8999999761581","","","stimuli/Set_1_rs/099a.jpg","77","","outdoor","SL","","","","","","","","","","","","","",""
"image-keyboard-response","34","185900","0.0-2.0-6.0-0.13","1196.4000000357628","","","stimuli/Set_1_rs/178a.jpg","67","","indoor","SL","","","","","","","","","","","","","",""
"image-keyboard-response","35","188402","0.0-2.0-6.0-0.14","1382.1000000238419","","","stimuli/Set_1_rs/134a.jpg","67","","indoor","SL","","","","","","","","","","","","","",""
"image-keyboard-response","36","190904","0.0-2.0-6.0-0.15","1088.3999999761581","","","stimuli/Set_1_rs/156a.jpg","67","","indoor","SL","","","","","","","","","","","","","",""
"image-keyboard-response","37","193406","0.0-2.0-6.0-0.16","1385.699999988079","","","stimuli/Set_1_rs/054a.jpg","77","","outdoor","SR","","","","","","","","","","","","","",""
"image-keyboard-response","38","195908","0.0-2.0-6.0-0.17","1636.5","","","stimuli/Set_1_rs/092a.jpg","67","","indoor","SL","","","","","","","","","","","","","",""
"image-keyboard-response","39","198411","0.0-2.0-6.0-0.18","1182.300000011921","","","stimuli/Set_1_rs/031a.jpg","67","","indoor","SL","","","","","","","","","","","","","",""
"image-keyboard-response","40","200914","0.0-2.0-6.0-0.19","1143.2999999523163","","","stimuli/Set_1_rs/013a.jpg","67","","indoor","SL","","","","","","","","","","","","","",""
"image-keyboard-response","41","203416","0.0-2.0-6.0-0.20","1103.7999999523163","","","stimuli/Set_1_rs/075a.jpg","77","","outdoor","SL","","","","","","","","","","","","","",""
"image-keyboard-response","42","205919","0.0-2.0-6.0-0.21","1433.9000000357628","","","stimuli/Set_1_rs/150a.jpg","67","","indoor","SR","","","","","","","","","","","","","",""
"image-keyboard-response","43","208421","0.0-2.0-6.0-0.22","1107.699999988079","","","stimuli/Set_1_rs/094a.jpg","67","","indoor","SL","","","","","","","","","","","","","",""
"image-keyboard-response","44","210923","0.0-2.0-6.0-0.23","1517","","","stimuli/Set_1_rs/090a.jpg","67","","indoor","SL","","","","","","","","","","","","","",""
"image-keyboard-response","45","213426","0.0-2.0-6.0-0.24","1318.699999988079","","","stimuli/Set_1_rs/192a.jpg","67","","indoor","SR","","","","","","","","","","","","","",""
"image-keyboard-response","46","215927","0.0-2.0-6.0-0.25","1328.199999988079","","","stimuli/Set_1_rs/116a.jpg","67","","indoor","SL","","","","","","","","","","","","","",""
"image-keyboard-response","47","218428","0.0-2.0-6.0-0.26","1499","","","stimuli/Set_1_rs/044a.jpg","77","","outdoor","SR","","","","","","","","","","","","","",""
"image-keyboard-response","48","220930","0.0-2.0-6.0-0.27","1413.6000000238419","","","stimuli/Set_1_rs/114a.jpg","67","","indoor","SL","","","","","","","","","","","","","",""
"image-keyboard-response","49","223432","0.0-2.0-6.0-0.28","1039.6000000238419","","","stimuli/Set_1_rs/112a.jpg","67","","indoor","SR","","","","","","","","","","","","","",""
"image-keyboard-response","50","225934","0.0-2.0-6.0-0.29","1225.7000000476837","","","stimuli/Set_1_rs/052a.jpg","67","","indoor","SL","","","","","","","","","","","","","",""
"image-keyboard-response","51","228437","0.0-2.0-6.0-0.30","1235.6000000238419","","","stimuli/Set_1_rs/058a.jpg","67","","indoor","SR","","","","","","","","","","","","","",""
"image-keyboard-response","52","230939","0.0-2.0-6.0-0.31","989.3000000119209","","","stimuli/Set_1_rs/023a.jpg","77","","outdoor","SL","","","","","","","","","","","","","",""
"image-keyboard-response","53","233442","0.0-2.0-6.0-0.32","1238.300000011921","","","stimuli/Set_1_rs/030a.jpg","77","","outdoor","SR","","","","","","","","","","","","","",""
"image-keyboard-response","54","235943","0.0-2.0-6.0-0.33","1088","","","stimuli/Set_1_rs/091a.jpg","67","","indoor","SR","","","","","","","","","","","","","",""
"image-keyboard-response","55","238445","0.0-2.0-6.0-0.34","1082.2999999523163","","","stimuli/Set_1_rs/147a.jpg","77","","outdoor","SR","","","","","","","","","","","","","",""
"image-keyboard-response","56","240948","0.0-2.0-6.0-0.35","1044.1000000238419","","","stimuli/Set_1_rs/063a.jpg","67","","indoor","SR","","","","","","","","","","","","","",""
"image-keyboard-response","57","243451","0.0-2.0-6.0-0.36","1196.5999999642372","","","stimuli/Set_1_rs/040a.jpg","67","","indoor","SR","","","","","","","","","","","","","",""
"image-keyboard-response","58","245953","0.0-2.0-6.0-0.37","1286.7999999523163","","","stimuli/Set_1_rs/038a.jpg","67","","indoor","SR","","","","","","","","","","","","","",""
"image-keyboard-response","59","248455","0.0-2.0-6.0-0.38","1040.9000000357628","","","stimuli/Set_1_rs/100a.jpg","67","","indoor","SL","","","","","","","","","","","","","",""
"image-keyboard-response","60","250957","0.0-2.0-6.0-0.39","1018.8999999761581","","","stimuli/Set_1_rs/109a.jpg","67","","indoor","SR","","","","","","","","","","","","","",""
"image-keyboard-response","61","253461","0.0-2.0-6.0-0.40","1251.699999988079","","","stimuli/Set_1_rs/191a.jpg","67","","indoor","SR","","","","","","","","","","","","","",""
"image-keyboard-response","62","255962","0.0-2.0-6.0-0.41","940.8999999761581","","","stimuli/Set_1_rs/061a.jpg","77","","outdoor","SL","","","","","","","","","","","","","",""
"image-keyboard-response","63","258465","0.0-2.0-6.0-0.42","1239.300000011921","","","stimuli/Set_1_rs/162a.jpg","77","","outdoor","SR","","","","","","","","","","","","","",""
"image-keyboard-response","64","260968","0.0-2.0-6.0-0.43","1168.800000011921","","","stimuli/Set_1_rs/046a.jpg","67","","indoor","SR","","","","","","","","","","","","","",""
"image-keyboard-response","65","263470","0.0-2.0-6.0-0.44","1049.2000000476837","","","stimuli/Set_1_rs/155a.jpg","77","","outdoor","SL","","","","","","","","","","","","","",""
"image-keyboard-response","66","265972","0.0-2.0-6.0-0.45","1043.5","","","stimuli/Set_1_rs/010a.jpg","67","","indoor","SR","","","","","","","","","","","","","",""
"image-keyboard-response","67","268474","0.0-2.0-6.0-0.46","1148.699999988079","","","stimuli/Set_1_rs/142a.jpg","77","","outdoor","SR","","","","","","","","","","","","","",""
"image-keyboard-response","68","270977","0.0-2.0-6.0-0.47","1319.3999999761581","","","stimuli/Set_1_rs/045a.jpg","67","","indoor","SL","","","","","","","","","","","","","",""
"image-keyboard-response","69","273479","0.0-2.0-6.0-0.48","895.8000000119209","","","stimuli/Set_1_rs/070a.jpg","77","","outdoor","SR","","","","","","","","","","","","","",""
"image-keyboard-response","70","275983","0.0-2.0-6.0-0.49","1209.800000011921","","","stimuli/Set_1_rs/022a.jpg","77","","outdoor","SL","","","","","","","","","","","","","",""
"image-keyboard-response","71","278484","0.0-2.0-6.0-0.50","1202.7999999523163","","","stimuli/Set_1_rs/021a.jpg","77","","outdoor","SR","","","","","","","","","","","","","",""
"image-keyboard-response","72","280987","0.0-2.0-6.0-0.51","1276.9000000357628","","","stimuli/Set_1_rs/098a.jpg","67","","indoor","SL","","","","","","","","","","","","","",""
"image-keyboard-response","73","283489","0.0-2.0-6.0-0.52","1158","","","stimuli/Set_1_rs/008a.jpg","67","","indoor","SL","","","","","","","","","","","","","",""
"image-keyboard-response","74","285991","0.0-2.0-6.0-0.53","1056.0999999642372","","","stimuli/Set_1_rs/012a.jpg","67","","indoor","SL","","","","","","","","","","","","","",""
"image-keyboard-response","75","288493","0.0-2.0-6.0-0.54","1050","","","stimuli/Set_1_rs/153a.jpg","77","","outdoor","SR","","","","","","","","","","","","","",""
"image-keyboard-response","76","290995","0.0-2.0-6.0-0.55","1043.699999988079","","","stimuli/Set_1_rs/068a.jpg","67","","indoor","SL","","","","","","","","","","","","","",""
"image-keyboard-response","77","293499","0.0-2.0-6.0-0.56","781.3000000119209","","","stimuli/Set_1_rs/140a.jpg","67","","indoor","SL","","","","","","","","","","","","","",""
"image-keyboard-response","78","296000","0.0-2.0-6.0-0.57","1622.5","","","stimuli/Set_1_rs/029a.jpg","67","","indoor","SR","","","","","","","","","","","","","",""
"image-keyboard-response","79","298502","0.0-2.0-6.0-0.58","1089","","","stimuli/Set_1_rs/049a.jpg","77","","outdoor","SR","","","","","","","","","","","","","",""
"image-keyboard-response","80","301004","0.0-2.0-6.0-0.59","842.8000000119209","","","stimuli/Set_1_rs/180a.jpg","67","","indoor","SR","","","","","","","","","","","","","",""
"image-keyboard-response","81","303507","0.0-2.0-6.0-0.60","948.3000000119209","","","stimuli/Set_1_rs/033a.jpg","67","","indoor","SL","","","","","","","","","","","","","",""
"image-keyboard-response","82","306009","0.0-2.0-6.0-0.61","1150.1000000238419","","","stimuli/Set_1_rs/119a.jpg","67","","indoor","SL","","","","","","","","","","","","","",""
"image-keyboard-response","83","308510","0.0-2.0-6.0-0.62","984.1999999880791","","","stimuli/Set_1_rs/118a.jpg","67","","indoor","SR","","","","","","","","","","","","","",""
"image-keyboard-response","84","311011","0.0-2.0-6.0-0.63","1058.800000011921","","","stimuli/Set_1_rs/107a.jpg","77","","outdoor","SR","","","","","","","","","","","","","",""
"html-keyboard-response","85","315954","0.0-2.0-7.0","4941.599999964237","","","<p>Vége a feladat első részének. Tartson egy pár perces szünetet.</p>","32","","","","","","","","","","","","","","","","",""
"html-keyboard-response","86","337250","0.0-2.0-8.0-0.0","21295.099999964237","","","<p>A következőkben ismét tárgyak jelennek majd meg a képernyőn, egymás után.<br>Az Ön feladata eldönteni, látta-e már ezeket a tárgyakat a vizsgálat első felében.</p>		        			<p>Amennyiben pontosan ugyanezt a tárgyat látta (a tárgy <i>régi</i>), nyomja le a <b>C</b> billentyűt.</p>		        			<p>Amennyiben hasonló tárgyat látott (a tárgy <i>hasonló</i>), nyomja le a <b>B</b> billentyűt.</p>		        			<p>Amennyiben nem látta ezt a tárgyat az első részben (a tárgy <i>új</i>), nyomja le az <b>M</b> billentyűt.</p>","32","","","","","","","","","","","","","","","","",""
"html-keyboard-response","87","339251","0.0-2.0-8.0-1.0","null","","","<p>Kezdődik a gyakorlás...</p>","null","","","","","","","","","","","","","","","","",""
"image-keyboard-response","88","343254","0.0-2.0-9.0-0.0","1932.5","","","stimuli/Set_2_rs/049b.jpg","67","","","TL","l","false","o","","","","","","","","","","",""
"html-keyboard-response","89","346946","0.0-2.0-9.0-1.0","3689.5","","","<p>A helyes válasz: Hasonló.</p><p>Az Ön válasza: Régi.</p>","32","","","","","","","","","","","","","","","","",""
"image-keyboard-response","90","350948","0.0-2.0-9.0-0.1","2846.099999964237","","","stimuli/Set_2_rs/018b.jpg","66","","","TF","n","false","s","","","","","","","","","","",""
"html-keyboard-response","91","352689","0.0-2.0-9.0-1.1","1740.0999999642372","","","<p>A helyes válasz: Új.</p><p>Az Ön válasza: Hasonló.</p>","32","","","","","","","","","","","","","","","","",""
"image-keyboard-response","92","356692","0.0-2.0-9.0-0.2","2062.199999988079","","","stimuli/Set_2_rs/028a.jpg","67","","","TR","o","true","o","","","","","","","","","","",""
"html-keyboard-response","93","357537","0.0-2.0-9.0-1.2","844.0999999642372","","","<p>A helyes válasz: Régi.</p><p>Az Ön válasza: Régi.</p>","32","","","","","","","","","","","","","","","","",""
"image-keyboard-response","94","361540","0.0-2.0-9.0-0.3","2478","","","stimuli/Set_2_rs/137a.jpg","66","","","TR","o","false","s","","","","","","","","","","",""
"html-keyboard-response","95","367377","0.0-2.0-9.0-1.3","5836.199999988079","","","<p>A helyes válasz: Régi.</p><p>Az Ön válasza: Hasonló.</p>","32","","","","","","","","","","","","","","","","",""
"image-keyboard-response","96","371380","0.0-2.0-9.0-0.4","1917.5999999642372","","","stimuli/Set_2_rs/135b.jpg","67","","","TL","l","false","o","","","","","","","","","","",""
"html-keyboard-response","97","372625","0.0-2.0-9.0-1.4","1243.800000011921","","","<p>A helyes válasz: Hasonló.</p><p>Az Ön válasza: Régi.</p>","32","","","","","","","","","","","","","","","","",""
"image-keyboard-response","98","376628","0.0-2.0-9.0-0.5","2461.800000011921","","","stimuli/Set_2_rs/019a.jpg","77","","","TF","n","true","n","","","","","","","","","","",""
"html-keyboard-response","99","378001","0.0-2.0-9.0-1.5","1371.300000011921","","","<p>A helyes válasz: Új.</p><p>Az Ön válasza: Új.</p>","32","","","","","","","","","","","","","","","","",""
"html-keyboard-response","100","381489","0.0-2.0-10.0-0.0","3487.300000011921","","","<p>Ez volt a gyakorlás. A feladat következik. A feladat alatt már nem kap visszajelzést.</p>","32","","","","","","","","","","","","","","","","",""
"html-keyboard-response","101","383490","0.0-2.0-10.0-1.0","null","","","<p>Kezdődik a feladat...</p>","null","","","","","","","","","","","","","","","","",""
"image-keyboard-response","102","387994","0.0-2.0-11.0-0.0","1404","","","stimuli/Set_1_rs/181a.jpg","77","","","TF","n","true","n","","","","","","","","","","",""
"image-keyboard-response","103","392497","0.0-2.0-11.0-0.1","1236.300000011921","","","stimuli/Set_1_rs/152a.jpg","77","","","TF","n","true","n","","","","","","","","","","",""
"image-keyboard-response","104","397000","0.0-2.0-11.0-0.2","1341.2999999523163","","","stimuli/Set_1_rs/090b.jpg","66","","","TL","s","true","s","","","","","","","","","","",""
"image-keyboard-response","105","401503","0.0-2.0-11.0-0.3","2246.300000011921","","","stimuli/Set_1_rs/126a.jpg","67","","","TF","n","false","o","","","","","","","","","","",""
"image-keyboard-response","106","406006","0.0-2.0-11.0-0.4","2991.300000011921","","","stimuli/Set_1_rs/068b.jpg","77","","","TL","s","false","n","","","","","","","","","","",""
"image-keyboard-response","107","410509","0.0-2.0-11.0-0.5","3095.800000011921","","","stimuli/Set_1_rs/054a.jpg","67","","","TR","o","true","o","","","","","","","","","","",""
"image-keyboard-response","108","415012","0.0-2.0-11.0-0.6","2385","","","stimuli/Set_1_rs/162a.jpg","67","","","TR","o","true","o","","","","","","","","","","",""
"image-keyboard-response","109","419515","0.0-2.0-11.0-0.7","2361.800000011921","","","stimuli/Set_1_rs/019a.jpg","77","","","TF","n","true","n","","","","","","","","","","",""
"image-keyboard-response","110","424018","0.0-2.0-11.0-0.8","1779","","","stimuli/Set_1_rs/119b.jpg","67","","","TL","s","false","o","","","","","","","","","","",""
"image-keyboard-response","111","428521","0.0-2.0-11.0-0.9","1371.9000000357628","","","stimuli/Set_1_rs/052b.jpg","66","","","TL","s","true","s","","","","","","","","","","",""
"image-keyboard-response","112","433024","0.0-2.0-11.0-0.10","2069.399999976158","","","stimuli/Set_1_rs/135a.jpg","77","","","TF","n","true","n","","","","","","","","","","",""
"image-keyboard-response","113","437526","0.0-2.0-11.0-0.11","1118.5999999642372","","","stimuli/Set_1_rs/004a.jpg","77","","","TF","n","true","n","","","","","","","","","","",""
"image-keyboard-response","114","442029","0.0-2.0-11.0-0.12","1127.7999999523163","","","stimuli/Set_1_rs/072a.jpg","77","","","TF","n","true","n","","","","","","","","","","",""
"image-keyboard-response","115","446532","0.0-2.0-11.0-0.13","1216.6000000238419","","","stimuli/Set_1_rs/028a.jpg","77","","","TF","n","true","n","","","","","","","","","","",""
"image-keyboard-response","116","451035","0.0-2.0-11.0-0.14","1625.699999988079","","","stimuli/Set_1_rs/091a.jpg","67","","","TR","o","true","o","","","","","","","","","","",""
"image-keyboard-response","117","455537","0.0-2.0-11.0-0.15","1219","","","stimuli/Set_1_rs/108a.jpg","77","","","TF","n","true","n","","","","","","","","","","",""
"image-keyboard-response","118","460040","0.0-2.0-11.0-0.16","1964.800000011921","","","stimuli/Set_1_rs/146a.jpg","66","","","TF","n","false","s","","","","","","","","","","",""
"image-keyboard-response","119","464543","0.0-2.0-11.0-0.17","1237.8999999761581","","","stimuli/Set_1_rs/013b.jpg","66","","","TL","s","true","s","","","","","","","","","","",""
"image-keyboard-response","120","469046","0.0-2.0-11.0-0.18","1806.6000000238419","","","stimuli/Set_1_rs/141a.jpg","77","","","TF","n","true","n","","","","","","","","","","",""
"image-keyboard-response","121","473549","0.0-2.0-11.0-0.19","1543.5","","","stimuli/Set_1_rs/156b.jpg","67","","","TL","s","false","o","","","","","","","","","","",""
"image-keyboard-response","122","478052","0.0-2.0-11.0-0.20","1216.5","","","stimuli/Set_1_rs/024a.jpg","67","","","TR","o","true","o","","","","","","","","","","",""
"image-keyboard-response","123","482555","0.0-2.0-11.0-0.21","1689.5","","","stimuli/Set_1_rs/046a.jpg","66","","","TR","o","false","s","","","","","","","","","","",""
"image-keyboard-response","124","487059","0.0-2.0-11.0-0.22","1841.9000000357628","","","stimuli/Set_1_rs/100b.jpg","66","","","TL","s","true","s","","","","","","","","","","",""
"image-keyboard-response","125","491563","0.0-2.0-11.0-0.23","1498.300000011921","","","stimuli/Set_1_rs/080a.jpg","77","","","TF","n","true","n","","","","","","","","","","",""
"image-keyboard-response","126","496065","0.0-2.0-11.0-0.24","1362.5","","","stimuli/Set_1_rs/094b.jpg","77","","","TL","s","false","n","","","","","","","","","","",""
"image-keyboard-response","127","500569","0.0-2.0-11.0-0.25","1163.699999988079","","","stimuli/Set_1_rs/190a.jpg","77","","","TF","n","true","n","","","","","","","","","","",""
"image-keyboard-response","128","505071","0.0-2.0-11.0-0.26","1572.300000011921","","","stimuli/Set_1_rs/137a.jpg","66","","","TR","o","false","s","","","","","","","","","","",""
"image-keyboard-response","129","509574","0.0-2.0-11.0-0.27","1166.2000000476837","","","stimuli/Set_1_rs/180a.jpg","67","","","TR","o","true","o","","","","","","","","","","",""
"image-keyboard-response","130","514077","0.0-2.0-11.0-0.28","1303.6000000238419","","","stimuli/Set_1_rs/134b.jpg","66","","","TL","s","true","s","","","","","","","","","","",""
"image-keyboard-response","131","518580","0.0-2.0-11.0-0.29","1440.0999999642372","","","stimuli/Set_1_rs/088a.jpg","77","","","TF","n","true","n","","","","","","","","","","",""
"image-keyboard-response","132","523083","0.0-2.0-11.0-0.30","1257","","","stimuli/Set_1_rs/165a.jpg","77","","","TF","n","true","n","","","","","","","","","","",""
"image-keyboard-response","133","527587","0.0-2.0-11.0-0.31","1361.300000011921","","","stimuli/Set_1_rs/075b.jpg","66","","","TL","s","true","s","","","","","","","","","","",""
"image-keyboard-response","134","532091","0.0-2.0-11.0-0.32","1336.6000000238419","","","stimuli/Set_1_rs/191a.jpg","67","","","TR","o","true","o","","","","","","","","","","",""
"image-keyboard-response","135","536593","0.0-2.0-11.0-0.33","1298.199999988079","","","stimuli/Set_1_rs/112a.jpg","67","","","TR","o","true","o","","","","","","","","","","",""
"image-keyboard-response","136","541097","0.0-2.0-11.0-0.34","1515.1000000238419","","","stimuli/Set_1_rs/171a.jpg","77","","","TF","n","true","n","","","","","","","","","","",""
"image-keyboard-response","137","545600","0.0-2.0-11.0-0.35","2435.800000011921","","","stimuli/Set_1_rs/021a.jpg","77","","","TR","o","false","n","","","","","","","","","","",""
"image-keyboard-response","138","550103","0.0-2.0-11.0-0.36","2076.2999999523163","","","stimuli/Set_1_rs/157a.jpg","66","","","TR","o","false","s","","","","","","","","","","",""
"image-keyboard-response","139","554606","0.0-2.0-11.0-0.37","2133.7999999523163","","","stimuli/Set_1_rs/059b.jpg","66","","","TL","s","true","s","","","","","","","","","","",""
"image-keyboard-response","140","559110","0.0-2.0-11.0-0.38","1390.5","","","stimuli/Set_1_rs/153a.jpg","67","","","TR","o","true","o","","","","","","","","","","",""
"image-keyboard-response","141","563613","0.0-2.0-11.0-0.39","2166.800000011921","","","stimuli/Set_1_rs/002a.jpg","77","","","TF","n","true","n","","","","","","","","","","",""
"image-keyboard-response","142","568117","0.0-2.0-11.0-0.40","1791.4000000357628","","","stimuli/Set_1_rs/041a.jpg","77","","","TF","n","true","n","","","","","","","","","","",""
"image-keyboard-response","143","572620","0.0-2.0-11.0-0.41","1655.699999988079","","","stimuli/Set_1_rs/012b.jpg","77","","","TL","s","false","n","","","","","","","","","","",""
"image-keyboard-response","144","577122","0.0-2.0-11.0-0.42","1888.6000000238419","","","stimuli/Set_1_rs/083b.jpg","67","","","TL","s","false","o","","","","","","","","","","",""
"image-keyboard-response","145","581626","0.0-2.0-11.0-0.43","1321.8999999761581","","","stimuli/Set_1_rs/051a.jpg","77","","","TF","n","true","n","","","","","","","","","","",""
"image-keyboard-response","146","586129","0.0-2.0-11.0-0.44","1474.699999988079","","","stimuli/Set_1_rs/168a.jpg","67","","","TF","n","false","o","","","","","","","","","","",""
"image-keyboard-response","147","590632","0.0-2.0-11.0-0.45","1355.2999999523163","","","stimuli/Set_1_rs/155b.jpg","66","","","TL","s","true","s","","","","","","","","","","",""
"image-keyboard-response","148","595134","0.0-2.0-11.0-0.46","1284.5","","","stimuli/Set_1_rs/045b.jpg","66","","","TL","s","true","s","","","","","","","","","","",""
"image-keyboard-response","149","599638","0.0-2.0-11.0-0.47","2397.699999988079","","","stimuli/Set_1_rs/031b.jpg","67","","","TL","s","false","o","","","","","","","","","","",""
"image-keyboard-response","150","604141","0.0-2.0-11.0-0.48","1670.0999999642372","","","stimuli/Set_1_rs/136a.jpg","67","","","TR","o","true","o","","","","","","","","","","",""
"image-keyboard-response","151","608644","0.0-2.0-11.0-0.49","1247.199999988079","","","stimuli/Set_1_rs/053a.jpg","77","","","TF","n","true","n","","","","","","","","","","",""
"image-keyboard-response","152","613147","0.0-2.0-11.0-0.50","2024","","","stimuli/Set_1_rs/061b.jpg","66","","","TL","s","true","s","","","","","","","","","","",""
"image-keyboard-response","153","617651","0.0-2.0-11.0-0.51","1008.1999999880791","","","stimuli/Set_1_rs/062a.jpg","77","","","TF","n","true","n","","","","","","","","","","",""
"image-keyboard-response","154","622153","0.0-2.0-11.0-0.52","1513.3999999761581","","","stimuli/Set_1_rs/009a.jpg","66","","","TR","o","false","s","","","","","","","","","","",""
"image-keyboard-response","155","626657","0.0-2.0-11.0-0.53","1362.5","","","stimuli/Set_1_rs/099b.jpg","67","","","TL","s","false","o","","","","","","","","","","",""
"image-keyboard-response","156","631159","0.0-2.0-11.0-0.54","1723","","","stimuli/Set_1_rs/030a.jpg","67","","","TR","o","true","o","","","","","","","","","","",""
"image-keyboard-response","157","635662","0.0-2.0-11.0-0.55","1108","","","stimuli/Set_1_rs/029a.jpg","67","","","TR","o","true","o","","","","","","","","","","",""
"image-keyboard-response","158","640165","0.0-2.0-11.0-0.56","893.3000000119209","","","stimuli/Set_1_rs/140b.jpg","66","","","TL","s","true","s","","","","","","","","","","",""
"image-keyboard-response","159","644668","0.0-2.0-11.0-0.57","1126.300000011921","","","stimuli/Set_1_rs/182a.jpg","77","","","TF","n","true","n","","","","","","","","","","",""
"image-keyboard-response","160","649171","0.0-2.0-11.0-0.58","1695.5","","","stimuli/Set_1_rs/151a.jpg","67","","","TF","n","false","o","","","","","","","","","","",""
"image-keyboard-response","161","653674","0.0-2.0-11.0-0.59","1832.1000000238419","","","stimuli/Set_1_rs/142a.jpg","67","","","TR","o","true","o","","","","","","","","","","",""
"image-keyboard-response","162","658177","0.0-2.0-11.0-0.60","1313.3999999761581","","","stimuli/Set_1_rs/070a.jpg","66","","","TR","o","false","s","","","","","","","","","","",""
"image-keyboard-response","163","662679","0.0-2.0-11.0-0.61","1450.5","","","stimuli/Set_1_rs/121a.jpg","77","","","TF","n","true","n","","","","","","","","","","",""
"image-keyboard-response","164","667182","0.0-2.0-11.0-0.62","1939.800000011921","","","stimuli/Set_1_rs/008b.jpg","66","","","TL","s","true","s","","","","","","","","","","",""
"image-keyboard-response","165","671685","0.0-2.0-11.0-0.63","1452.800000011921","","","stimuli/Set_1_rs/092b.jpg","77","","","TL","s","false","n","","","","","","","","","","",""
"image-keyboard-response","166","676188","0.0-2.0-11.0-0.64","1142.199999988079","","","stimuli/Set_1_rs/192a.jpg","67","","","TR","o","true","o","","","","","","","","","","",""
"image-keyboard-response","167","680692","0.0-2.0-11.0-0.65","1023","","","stimuli/Set_1_rs/147a.jpg","67","","","TR","o","true","o","","","","","","","","","","",""
"image-keyboard-response","168","685195","0.0-2.0-11.0-0.66","1207.4000000357628","","","stimuli/Set_1_rs/032a.jpg","77","","","TF","n","true","n","","","","","","","","","","",""
"image-keyboard-response","169","689698","0.0-2.0-11.0-0.67","1471.9000000357628","","","stimuli/Set_1_rs/128b.jpg","66","","","TL","s","true","s","","","","","","","","","","",""
"image-keyboard-response","170","694201","0.0-2.0-11.0-0.68","2024.5","","","stimuli/Set_1_rs/186a.jpg","77","","","TF","n","true","n","","","","","","","","","","",""
"image-keyboard-response","171","698703","0.0-2.0-11.0-0.69","1233.8999999761581","","","stimuli/Set_1_rs/109a.jpg","67","","","TR","o","true","o","","","","","","","","","","",""
"image-keyboard-response","172","703207","0.0-2.0-11.0-0.70","2315.199999988079","","","stimuli/Set_1_rs/160a.jpg","66","","","TF","n","false","s","","","","","","","","","","",""
"image-keyboard-response","173","707711","0.0-2.0-11.0-0.71","1715.300000011921","","","stimuli/Set_1_rs/086a.jpg","66","","","TR","o","false","s","","","","","","","","","","",""
"image-keyboard-response","174","712214","0.0-2.0-11.0-0.72","1387.8999999761581","","","stimuli/Set_1_rs/023b.jpg","67","","","TL","s","false","o","","","","","","","","","","",""
"image-keyboard-response","175","716717","0.0-2.0-11.0-0.73","2052.900000035763","","","stimuli/Set_1_rs/114b.jpg","66","","","TL","s","true","s","","","","","","","","","","",""
"image-keyboard-response","176","721220","0.0-2.0-11.0-0.74","1213.5","","","stimuli/Set_1_rs/033b.jpg","66","","","TL","s","true","s","","","","","","","","","","",""
"image-keyboard-response","177","725724","0.0-2.0-11.0-0.75","1174","","","stimuli/Set_1_rs/010a.jpg","67","","","TR","o","true","o","","","","","","","","","","",""
"image-keyboard-response","178","730227","0.0-2.0-11.0-0.76","2046","","","stimuli/Set_1_rs/150a.jpg","66","","","TR","o","false","s","","","","","","","","","","",""
"image-keyboard-response","179","734730","0.0-2.0-11.0-0.77","1142.8999999761581","","","stimuli/Set_1_rs/038a.jpg","67","","","TR","o","true","o","","","","","","","","","","",""
"image-keyboard-response","180","739234","0.0-2.0-11.0-0.78","1664","","","stimuli/Set_1_rs/022b.jpg","66","","","TL","s","true","s","","","","","","","","","","",""
"image-keyboard-response","181","743737","0.0-2.0-11.0-0.79","1528.5999999642372","","","stimuli/Set_1_rs/018a.jpg","77","","","TF","n","true","n","","","","","","","","","","",""
"image-keyboard-response","182","748240","0.0-2.0-11.0-0.80","1136.9000000357628","","","stimuli/Set_1_rs/081a.jpg","77","","","TF","n","true","n","","","","","","","","","","",""
"image-keyboard-response","183","752743","0.0-2.0-11.0-0.81","1577.800000011921","","","stimuli/Set_1_rs/107a.jpg","66","","","TR","o","false","s","","","","","","","","","","",""
"image-keyboard-response","184","757246","0.0-2.0-11.0-0.82","1122.9000000357628","","","stimuli/Set_1_rs/101b.jpg","67","","","TL","s","false","o","","","","","","","","","","",""
"image-keyboard-response","185","761749","0.0-2.0-11.0-0.83","1740","","","stimuli/Set_1_rs/178b.jpg","77","","","TL","s","false","n","","","","","","","","","","",""
"image-keyboard-response","186","766251","0.0-2.0-11.0-0.84","1205.699999988079","","","stimuli/Set_1_rs/103b.jpg","66","","","TL","s","true","s","","","","","","","","","","",""
"image-keyboard-response","187","770754","0.0-2.0-11.0-0.85","1358.6000000238419","","","stimuli/Set_1_rs/116b.jpg","66","","","TL","s","true","s","","","","","","","","","","",""
"image-keyboard-response","188","775258","0.0-2.0-11.0-0.86","1303.699999988079","","","stimuli/Set_1_rs/122a.jpg","77","","","TF","n","true","n","","","","","","","","","","",""
"image-keyboard-response","189","779761","0.0-2.0-11.0-0.87","1248.1000000238419","","","stimuli/Set_1_rs/044a.jpg","77","","","TR","o","false","n","","","","","","","","","","",""
"image-keyboard-response","190","784264","0.0-2.0-11.0-0.88","1656.8999999761581","","","stimuli/Set_1_rs/049a.jpg","67","","","TR","o","true","o","","","","","","","","","","",""
"image-keyboard-response","191","788768","0.0-2.0-11.0-0.89","914","","","stimuli/Set_1_rs/118a.jpg","67","","","TR","o","true","o","","","","","","","","","","",""
"image-keyboard-response","192","793271","0.0-2.0-11.0-0.90","1257.800000011921","","","stimuli/Set_1_rs/040a.jpg","67","","","TR","o","true","o","","","","","","","","","","",""
"image-keyboard-response","193","797774","0.0-2.0-11.0-0.91","1650.5","","","stimuli/Set_1_rs/011b.jpg","66","","","TL","s","true","s","","","","","","","","","","",""
"image-keyboard-response","194","802277","0.0-2.0-11.0-0.92","1067.5","","","stimuli/Set_1_rs/087a.jpg","77","","","TF","n","true","n","","","","","","","","","","",""
"image-keyboard-response","195","806780","0.0-2.0-11.0-0.93","1172.7000000476837","","","stimuli/Set_1_rs/063a.jpg","67","","","TR","o","true","o","","","","","","","","","","",""
"image-keyboard-response","196","811283","0.0-2.0-11.0-0.94","1596.8999999761581","","","stimuli/Set_1_rs/098b.jpg","66","","","TL","s","true","s","","","","","","","","","","",""
"image-keyboard-response","197","815786","0.0-2.0-11.0-0.95","1510.2999999523163","","","stimuli/Set_1_rs/058a.jpg","67","","","TR","o","true","o","","","","","","","","","","",""
"html-keyboard-response","198","825755","0.0-3.0","9967.600000023842","","","<p>Vége a feladatnak. Köszönjük a részvételt!</p>","77","","","","","","","23","9","2","9","20","5","3","3","28","0.5882352941176471","0.5"
