"trial_type","trial_index","time_elapsed","internal_node_id","rt","responses","success","stimulus","key_press","cond","enc_response","condition","correct_response","correct","rec_response","targ_old","targ_sim","targ_new","lure_old","lure_sim","lure_new","foil_old","foil_sim","foil_new","recognition_ratio","ldi"
"pavlovia","0","5","0.0-0.0","","","","","","","","","","","","","","","","","","","","","",""
"survey-multi-choice","1","6954","0.0-1.0","6944.799999952316","{""Q0"":""Igen"",""Q1"":""Igen""}","","","","","","","","","","","","","","","","","","","",""
"survey-text","2","22308","0.0-2.0-0.0","15352.800000190735","{""Q0"":""664334""}","","","","","","","","","","","","","","","","","","","",""
"fullscreen","3","24079","0.0-2.0-1.0","","","true","","","","","","","","","","","","","","","","","","",""
"html-keyboard-response","4","28967","0.0-2.0-2.0","4885.900000095367","","","<p>Üdvözöljük! Ez a feladat két részből áll, és összesen 10-15 percet vesz igénybe.</p>","32","","","","","","","","","","","","","","","","",""
"html-keyboard-response","5","48534","0.0-2.0-3.0-0.0","19565.5","","","<p>Az első részben tárgyakat lát majd a képernyőn, egymás után fognak megjelenni.<br>Az Ön feladata eldönteni, hogy a tárgyak <i>beltéri vagy kültéri</i> tárgyak-e.</p>						   <p>Amennyiben a tárgyat általában beltéren látja, nyomja le a <b>C</b> billentyűt. Amennyiben a tárgyat általában kültéren látja, nyomja le az <b>M</b> billentyűt.</p>						   <p>Ebben a feladatban nincsen mindig egyértelműen jó megoldás. Válaszoljon legjobb tudása szerint. A válaszadásra 2 másodperce lesz.","32","","","","","","","","","","","","","","","","",""
"html-keyboard-response","6","50536","0.0-2.0-3.0-1.0","null","","","<p>Kezdődik a gyakorlás...</p>","null","","","","","","","","","","","","","","","","",""
"image-keyboard-response","7","52540","0.0-2.0-4.0-0.0","1194.1000001430511","","","stimuli/Set_2_rs/165b.jpg","77","-","outdoor","","","","","","","","","","","","","","",""
"html-keyboard-response","8","54997","0.0-2.0-4.0-1.0","1954.7000000476837","","","<p>Az Ön válasza:</p><p>Kültéri.</p>","32","","","","","","","","","","","","","","","","",""
"image-keyboard-response","9","57000","0.0-2.0-4.0-0.1","973.7000000476837","","","stimuli/Set_2_rs/034a.jpg","67","-","indoor","","","","","","","","","","","","","","",""
"html-keyboard-response","10","58117","0.0-2.0-4.0-1.1","615.5","","","<p>Az Ön válasza:</p><p>Beltéri.</p>","32","","","","","","","","","","","","","","","","",""
"image-keyboard-response","11","60119","0.0-2.0-4.0-0.2","1198.7999999523163","","","stimuli/Set_2_rs/049a.jpg","77","SL","outdoor","","","","","","","","","","","","","","",""
"html-keyboard-response","12","61525","0.0-2.0-4.0-1.2","904.2000000476837","","","<p>Az Ön válasza:</p><p>Kültéri.</p>","32","","","","","","","","","","","","","","","","",""
"image-keyboard-response","13","63527","0.0-2.0-4.0-0.3","926.7000000476837","","","stimuli/Set_2_rs/028a.jpg","67","SR","indoor","","","","","","","","","","","","","","",""
"html-keyboard-response","14","64629","0.0-2.0-4.0-1.3","600.3999998569489","","","<p>Az Ön válasza:</p><p>Beltéri.</p>","32","","","","","","","","","","","","","","","","",""
"image-keyboard-response","15","66631","0.0-2.0-4.0-0.4","782.3000001907349","","","stimuli/Set_2_rs/135a.jpg","67","SL","indoor","","","","","","","","","","","","","","",""
"html-keyboard-response","16","67845","0.0-2.0-4.0-1.4","712.0999999046326","","","<p>Az Ön válasza:</p><p>Beltéri.</p>","32","","","","","","","","","","","","","","","","",""
"image-keyboard-response","17","69847","0.0-2.0-4.0-0.5","1054.7000000476837","","","stimuli/Set_2_rs/137a.jpg","67","SR","indoor","","","","","","","","","","","","","","",""
"html-keyboard-response","18","71253","0.0-2.0-4.0-1.5","904.2000000476837","","","<p>Az Ön válasza:</p><p>Beltéri.</p>","32","","","","","","","","","","","","","","","","",""
"html-keyboard-response","19","76741","0.0-2.0-5.0-0.0","5487.099999904633","","","<p>Ez volt a gyakorlás. A feladat következik. A feladat alatt már nem kap visszajelzést.</p>","32","","","","","","","","","","","","","","","","",""
"html-keyboard-response","20","78742","0.0-2.0-5.0-1.0","null","","","<p>Kezdődik a feladat...</p>","null","","","","","","","","","","","","","","","","",""
"image-keyboard-response","21","81244","0.0-2.0-6.0-0.0","1116.6000001430511","","","stimuli/Set_1_rs/157a.jpg","77","","outdoor","SR","","","","","","","","","","","","","",""
"image-keyboard-response","22","83746","0.0-2.0-6.0-0.1","774.8999998569489","","","stimuli/Set_1_rs/009a.jpg","67","","indoor","SR","","","","","","","","","","","","","",""
"image-keyboard-response","23","86248","0.0-2.0-6.0-0.2","1185.5","","","stimuli/Set_1_rs/059a.jpg","67","","indoor","SL","","","","","","","","","","","","","",""
"image-keyboard-response","24","88749","0.0-2.0-6.0-0.3","1291.6999998092651","","","stimuli/Set_1_rs/024a.jpg","77","","outdoor","SR","","","","","","","","","","","","","",""
"image-keyboard-response","25","91251","0.0-2.0-6.0-0.4","1157.4000000953674","","","stimuli/Set_1_rs/101a.jpg","67","","indoor","SL","","","","","","","","","","","","","",""
"image-keyboard-response","26","93753","0.0-2.0-6.0-0.5","864.1000001430511","","","stimuli/Set_1_rs/137a.jpg","77","","outdoor","SR","","","","","","","","","","","","","",""
"image-keyboard-response","27","96255","0.0-2.0-6.0-0.6","954.0999999046326","","","stimuli/Set_1_rs/011a.jpg","67","","indoor","SL","","","","","","","","","","","","","",""
"image-keyboard-response","28","98757","0.0-2.0-6.0-0.7","820.1999998092651","","","stimuli/Set_1_rs/128a.jpg","77","","outdoor","SL","","","","","","","","","","","","","",""
"image-keyboard-response","29","101260","0.0-2.0-6.0-0.8","1021.5","","","stimuli/Set_1_rs/083a.jpg","67","","indoor","SL","","","","","","","","","","","","","",""
"image-keyboard-response","30","103761","0.0-2.0-6.0-0.9","1175.7999999523163","","","stimuli/Set_1_rs/136a.jpg","67","","indoor","SR","","","","","","","","","","","","","",""
"image-keyboard-response","31","106263","0.0-2.0-6.0-0.10","770.2999999523163","","","stimuli/Set_1_rs/103a.jpg","67","","indoor","SL","","","","","","","","","","","","","",""
"image-keyboard-response","32","108765","0.0-2.0-6.0-0.11","764.2000000476837","","","stimuli/Set_1_rs/086a.jpg","67","","indoor","SR","","","","","","","","","","","","","",""
"image-keyboard-response","33","111267","0.0-2.0-6.0-0.12","933.5999999046326","","","stimuli/Set_1_rs/099a.jpg","77","","outdoor","SL","","","","","","","","","","","","","",""
"image-keyboard-response","34","113769","0.0-2.0-6.0-0.13","896","","","stimuli/Set_1_rs/178a.jpg","67","","indoor","SL","","","","","","","","","","","","","",""
"image-keyboard-response","35","116270","0.0-2.0-6.0-0.14","1002.5999999046326","","","stimuli/Set_1_rs/134a.jpg","77","","outdoor","SL","","","","","","","","","","","","","",""
"image-keyboard-response","36","118772","0.0-2.0-6.0-0.15","997.2000000476837","","","stimuli/Set_1_rs/156a.jpg","67","","indoor","SL","","","","","","","","","","","","","",""
"image-keyboard-response","37","121274","0.0-2.0-6.0-0.16","990.9000000953674","","","stimuli/Set_1_rs/054a.jpg","77","","outdoor","SR","","","","","","","","","","","","","",""
"image-keyboard-response","38","123776","0.0-2.0-6.0-0.17","1001.6000001430511","","","stimuli/Set_1_rs/092a.jpg","77","","outdoor","SL","","","","","","","","","","","","","",""
"image-keyboard-response","39","126278","0.0-2.0-6.0-0.18","1043.5","","","stimuli/Set_1_rs/031a.jpg","67","","indoor","SL","","","","","","","","","","","","","",""
"image-keyboard-response","40","128779","0.0-2.0-6.0-0.19","941.9000000953674","","","stimuli/Set_1_rs/013a.jpg","67","","indoor","SL","","","","","","","","","","","","","",""
"image-keyboard-response","41","131281","0.0-2.0-6.0-0.20","903.8000001907349","","","stimuli/Set_1_rs/075a.jpg","77","","outdoor","SL","","","","","","","","","","","","","",""
"image-keyboard-response","42","133784","0.0-2.0-6.0-0.21","1170.0999999046326","","","stimuli/Set_1_rs/150a.jpg","67","","indoor","SR","","","","","","","","","","","","","",""
"image-keyboard-response","43","136287","0.0-2.0-6.0-0.22","907.3999998569489","","","stimuli/Set_1_rs/094a.jpg","67","","indoor","SL","","","","","","","","","","","","","",""
"image-keyboard-response","44","138789","0.0-2.0-6.0-0.23","1028.6000001430511","","","stimuli/Set_1_rs/090a.jpg","77","","outdoor","SL","","","","","","","","","","","","","",""
"image-keyboard-response","45","141292","0.0-2.0-6.0-0.24","990.1000001430511","","","stimuli/Set_1_rs/192a.jpg","67","","indoor","SR","","","","","","","","","","","","","",""
"image-keyboard-response","46","143794","0.0-2.0-6.0-0.25","919.6000001430511","","","stimuli/Set_1_rs/116a.jpg","67","","indoor","SL","","","","","","","","","","","","","",""
"image-keyboard-response","47","146296","0.0-2.0-6.0-0.26","881.2999999523163","","","stimuli/Set_1_rs/044a.jpg","67","","indoor","SR","","","","","","","","","","","","","",""
"image-keyboard-response","48","148798","0.0-2.0-6.0-0.27","970.9000000953674","","","stimuli/Set_1_rs/114a.jpg","67","","indoor","SL","","","","","","","","","","","","","",""
"image-keyboard-response","49","151301","0.0-2.0-6.0-0.28","1140.7000000476837","","","stimuli/Set_1_rs/112a.jpg","77","","outdoor","SR","","","","","","","","","","","","","",""
"image-keyboard-response","50","153802","0.0-2.0-6.0-0.29","1358.0999999046326","","","stimuli/Set_1_rs/052a.jpg","67","","indoor","SL","","","","","","","","","","","","","",""
"image-keyboard-response","51","156304","0.0-2.0-6.0-0.30","1032.8999998569489","","","stimuli/Set_1_rs/058a.jpg","67","","indoor","SR","","","","","","","","","","","","","",""
"image-keyboard-response","52","158806","0.0-2.0-6.0-0.31","803.2000000476837","","","stimuli/Set_1_rs/023a.jpg","77","","outdoor","SL","","","","","","","","","","","","","",""
"image-keyboard-response","53","161308","0.0-2.0-6.0-0.32","796.7999999523163","","","stimuli/Set_1_rs/030a.jpg","67","","indoor","SR","","","","","","","","","","","","","",""
"image-keyboard-response","54","163810","0.0-2.0-6.0-0.33","1030.9000000953674","","","stimuli/Set_1_rs/091a.jpg","67","","indoor","SR","","","","","","","","","","","","","",""
"image-keyboard-response","55","166312","0.0-2.0-6.0-0.34","1520.7999999523163","","","stimuli/Set_1_rs/147a.jpg","67","","indoor","SR","","","","","","","","","","","","","",""
"image-keyboard-response","56","168815","0.0-2.0-6.0-0.35","874.5","","","stimuli/Set_1_rs/063a.jpg","77","","outdoor","SR","","","","","","","","","","","","","",""
"image-keyboard-response","57","171317","0.0-2.0-6.0-0.36","739.5999999046326","","","stimuli/Set_1_rs/040a.jpg","77","","outdoor","SR","","","","","","","","","","","","","",""
"image-keyboard-response","58","173819","0.0-2.0-6.0-0.37","1213.9000000953674","","","stimuli/Set_1_rs/038a.jpg","67","","indoor","SR","","","","","","","","","","","","","",""
"image-keyboard-response","59","176321","0.0-2.0-6.0-0.38","1288.0999999046326","","","stimuli/Set_1_rs/100a.jpg","67","","indoor","SL","","","","","","","","","","","","","",""
"image-keyboard-response","60","178822","0.0-2.0-6.0-0.39","1041.8000001907349","","","stimuli/Set_1_rs/109a.jpg","67","","indoor","SR","","","","","","","","","","","","","",""
"image-keyboard-response","61","181325","0.0-2.0-6.0-0.40","987.7000000476837","","","stimuli/Set_1_rs/191a.jpg","67","","indoor","SR","","","","","","","","","","","","","",""
"image-keyboard-response","62","183827","0.0-2.0-6.0-0.41","1062","","","stimuli/Set_1_rs/061a.jpg","77","","outdoor","SL","","","","","","","","","","","","","",""
"image-keyboard-response","63","186329","0.0-2.0-6.0-0.42","1392.0999999046326","","","stimuli/Set_1_rs/162a.jpg","77","","outdoor","SR","","","","","","","","","","","","","",""
"image-keyboard-response","64","188831","0.0-2.0-6.0-0.43","1225.3999998569489","","","stimuli/Set_1_rs/046a.jpg","67","","indoor","SR","","","","","","","","","","","","","",""
"image-keyboard-response","65","191333","0.0-2.0-6.0-0.44","787.2000000476837","","","stimuli/Set_1_rs/155a.jpg","77","","outdoor","SL","","","","","","","","","","","","","",""
"image-keyboard-response","66","193835","0.0-2.0-6.0-0.45","605.3999998569489","","","stimuli/Set_1_rs/010a.jpg","67","","indoor","SR","","","","","","","","","","","","","",""
"image-keyboard-response","67","196336","0.0-2.0-6.0-0.46","1367.8999998569489","","","stimuli/Set_1_rs/142a.jpg","67","","indoor","SR","","","","","","","","","","","","","",""
"image-keyboard-response","68","198839","0.0-2.0-6.0-0.47","1154.3999998569489","","","stimuli/Set_1_rs/045a.jpg","67","","indoor","SL","","","","","","","","","","","","","",""
"image-keyboard-response","69","201341","0.0-2.0-6.0-0.48","1163.0999999046326","","","stimuli/Set_1_rs/070a.jpg","67","","indoor","SR","","","","","","","","","","","","","",""
"image-keyboard-response","70","203843","0.0-2.0-6.0-0.49","1252.8999998569489","","","stimuli/Set_1_rs/022a.jpg","77","","outdoor","SL","","","","","","","","","","","","","",""
"image-keyboard-response","71","206346","0.0-2.0-6.0-0.50","1583.5","","","stimuli/Set_1_rs/021a.jpg","77","","outdoor","SR","","","","","","","","","","","","","",""
"image-keyboard-response","72","208847","0.0-2.0-6.0-0.51","984.7000000476837","","","stimuli/Set_1_rs/098a.jpg","67","","indoor","SL","","","","","","","","","","","","","",""
"image-keyboard-response","73","211350","0.0-2.0-6.0-0.52","754.6000001430511","","","stimuli/Set_1_rs/008a.jpg","67","","indoor","SL","","","","","","","","","","","","","",""
"image-keyboard-response","74","213852","0.0-2.0-6.0-0.53","1404.3999998569489","","","stimuli/Set_1_rs/012a.jpg","67","","indoor","SL","","","","","","","","","","","","","",""
"image-keyboard-response","75","216353","0.0-2.0-6.0-0.54","1590.7000000476837","","","stimuli/Set_1_rs/153a.jpg","67","","indoor","SR","","","","","","","","","","","","","",""
"image-keyboard-response","76","218855","0.0-2.0-6.0-0.55","1632.8999998569489","","","stimuli/Set_1_rs/068a.jpg","77","","outdoor","SL","","","","","","","","","","","","","",""
"image-keyboard-response","77","221357","0.0-2.0-6.0-0.56","843.1000001430511","","","stimuli/Set_1_rs/140a.jpg","67","","indoor","SL","","","","","","","","","","","","","",""
"image-keyboard-response","78","223859","0.0-2.0-6.0-0.57","1173.1999998092651","","","stimuli/Set_1_rs/029a.jpg","67","","indoor","SR","","","","","","","","","","","","","",""
"image-keyboard-response","79","226360","0.0-2.0-6.0-0.58","863.5","","","stimuli/Set_1_rs/049a.jpg","77","","outdoor","SR","","","","","","","","","","","","","",""
"image-keyboard-response","80","228863","0.0-2.0-6.0-0.59","666.0999999046326","","","stimuli/Set_1_rs/180a.jpg","67","","indoor","SR","","","","","","","","","","","","","",""
"image-keyboard-response","81","231366","0.0-2.0-6.0-0.60","690.9000000953674","","","stimuli/Set_1_rs/033a.jpg","67","","indoor","SL","","","","","","","","","","","","","",""
"image-keyboard-response","82","233868","0.0-2.0-6.0-0.61","1196.3999998569489","","","stimuli/Set_1_rs/119a.jpg","67","","indoor","SL","","","","","","","","","","","","","",""
"image-keyboard-response","83","236370","0.0-2.0-6.0-0.62","1062.5","","","stimuli/Set_1_rs/118a.jpg","77","","outdoor","SR","","","","","","","","","","","","","",""
"image-keyboard-response","84","238872","0.0-2.0-6.0-0.63","1024.3000001907349","","","stimuli/Set_1_rs/107a.jpg","67","","indoor","SR","","","","","","","","","","","","","",""
"html-keyboard-response","85","275620","0.0-2.0-7.0","36747.299999952316","","","<p>Vége a feladat első részének. Tartson egy pár perces szünetet.</p>","32","","","","","","","","","","","","","","","","",""
"html-keyboard-response","86","291956","0.0-2.0-8.0-0.0","16334.600000143051","","","<p>A következőkben ismét tárgyak jelennek majd meg a képernyőn, egymás után.<br>Az Ön feladata eldönteni, látta-e már ezeket a tárgyakat a vizsgálat első felében.</p>		        			<p>Amennyiben pontosan ugyanezt a tárgyat látta (a tárgy <i>régi</i>), nyomja le a <b>C</b> billentyűt.</p>		        			<p>Amennyiben hasonló tárgyat látott (a tárgy <i>hasonló</i>), nyomja le a <b>B</b> billentyűt.</p>		        			<p>Amennyiben nem látta ezt a tárgyat az első részben (a tárgy <i>új</i>), nyomja le az <b>M</b> billentyűt.</p>","32","","","","","","","","","","","","","","","","",""
"html-keyboard-response","87","293957","0.0-2.0-8.0-1.0","null","","","<p>Kezdődik a gyakorlás...</p>","null","","","","","","","","","","","","","","","","",""
"image-keyboard-response","88","297960","0.0-2.0-9.0-0.0","1980.1000001430511","","","stimuli/Set_2_rs/049b.jpg","77","","","TL","l","false","n","","","","","","","","","","",""
"html-keyboard-response","89","300515","0.0-2.0-9.0-1.0","2553.5","","","<p>A helyes válasz: Hasonló.</p><p>Az Ön válasza: Új.</p>","32","","","","","","","","","","","","","","","","",""
"image-keyboard-response","90","304518","0.0-2.0-9.0-0.1","1854.2000000476837","","","stimuli/Set_2_rs/018b.jpg","66","","","TF","n","false","s","","","","","","","","","","",""
"html-keyboard-response","91","306339","0.0-2.0-9.0-1.1","1820.2000000476837","","","<p>A helyes válasz: Új.</p><p>Az Ön válasza: Hasonló.</p>","32","","","","","","","","","","","","","","","","",""
"image-keyboard-response","92","310342","0.0-2.0-9.0-0.2","1245.7999999523163","","","stimuli/Set_2_rs/028a.jpg","67","","","TR","o","true","o","","","","","","","","","","",""
"html-keyboard-response","93","311619","0.0-2.0-9.0-1.2","1275.8999998569489","","","<p>A helyes válasz: Régi.</p><p>Az Ön válasza: Régi.</p>","32","","","","","","","","","","","","","","","","",""
"image-keyboard-response","94","315622","0.0-2.0-9.0-0.3","1278.1000001430511","","","stimuli/Set_2_rs/137a.jpg","67","","","TR","o","true","o","","","","","","","","","","",""
"html-keyboard-response","95","316435","0.0-2.0-9.0-1.3","812.2000000476837","","","<p>A helyes válasz: Régi.</p><p>Az Ön válasza: Régi.</p>","32","","","","","","","","","","","","","","","","",""
"image-keyboard-response","96","320438","0.0-2.0-9.0-0.4","1645.7999999523163","","","stimuli/Set_2_rs/135b.jpg","66","","","TL","l","false","s","","","","","","","","","","",""
"html-keyboard-response","97","321363","0.0-2.0-9.0-1.4","923.5","","","<p>A helyes válasz: Hasonló.</p><p>Az Ön válasza: Hasonló.</p>","32","","","","","","","","","","","","","","","","",""
"image-keyboard-response","98","325366","0.0-2.0-9.0-0.5","1758.1000001430511","","","stimuli/Set_2_rs/019a.jpg","66","","","TF","n","false","s","","","","","","","","","","",""
"html-keyboard-response","99","326467","0.0-2.0-9.0-1.5","1099.9000000953674","","","<p>A helyes válasz: Új.</p><p>Az Ön válasza: Hasonló.</p>","32","","","","","","","","","","","","","","","","",""
"html-keyboard-response","100","329603","0.0-2.0-10.0-0.0","3135.2000000476837","","","<p>Ez volt a gyakorlás. A feladat következik. A feladat alatt már nem kap visszajelzést.</p>","32","","","","","","","","","","","","","","","","",""
"html-keyboard-response","101","331604","0.0-2.0-10.0-1.0","null","","","<p>Kezdődik a feladat...</p>","null","","","","","","","","","","","","","","","","",""
"image-keyboard-response","102","336108","0.0-2.0-11.0-0.0","1580.5","","","stimuli/Set_1_rs/181a.jpg","77","","","TF","n","true","n","","","","","","","","","","",""
"image-keyboard-response","103","340611","0.0-2.0-11.0-0.1","1700.5999999046326","","","stimuli/Set_1_rs/152a.jpg","77","","","TF","n","true","n","","","","","","","","","","",""
"image-keyboard-response","104","345114","0.0-2.0-11.0-0.2","1118.2999999523163","","","stimuli/Set_1_rs/090b.jpg","66","","","TL","s","true","s","","","","","","","","","","",""
"image-keyboard-response","105","349616","0.0-2.0-11.0-0.3","2007.5","","","stimuli/Set_1_rs/126a.jpg","77","","","TF","n","true","n","","","","","","","","","","",""
"image-keyboard-response","106","354119","0.0-2.0-11.0-0.4","1984","","","stimuli/Set_1_rs/068b.jpg","66","","","TL","s","true","s","","","","","","","","","","",""
"image-keyboard-response","107","358623","0.0-2.0-11.0-0.5","777","","","stimuli/Set_1_rs/054a.jpg","67","","","TR","o","true","o","","","","","","","","","","",""
"image-keyboard-response","108","363127","0.0-2.0-11.0-0.6","1409.3999998569489","","","stimuli/Set_1_rs/162a.jpg","67","","","TR","o","true","o","","","","","","","","","","",""
"image-keyboard-response","109","367629","0.0-2.0-11.0-0.7","1881.9000000953674","","","stimuli/Set_1_rs/019a.jpg","77","","","TF","n","true","n","","","","","","","","","","",""
"image-keyboard-response","110","372131","0.0-2.0-11.0-0.8","1891.5","","","stimuli/Set_1_rs/119b.jpg","67","","","TL","s","false","o","","","","","","","","","","",""
"image-keyboard-response","111","376634","0.0-2.0-11.0-0.9","1277.2000000476837","","","stimuli/Set_1_rs/052b.jpg","77","","","TL","s","false","n","","","","","","","","","","",""
"image-keyboard-response","112","381137","0.0-2.0-11.0-0.10","1318","","","stimuli/Set_1_rs/135a.jpg","77","","","TF","n","true","n","","","","","","","","","","",""
"image-keyboard-response","113","385640","0.0-2.0-11.0-0.11","1423.7000000476837","","","stimuli/Set_1_rs/004a.jpg","77","","","TF","n","true","n","","","","","","","","","","",""
"image-keyboard-response","114","390143","0.0-2.0-11.0-0.12","1432.7999999523163","","","stimuli/Set_1_rs/072a.jpg","66","","","TF","n","false","s","","","","","","","","","","",""
"image-keyboard-response","115","394646","0.0-2.0-11.0-0.13","2257.600000143051","","","stimuli/Set_1_rs/028a.jpg","77","","","TF","n","true","n","","","","","","","","","","",""
"image-keyboard-response","116","399149","0.0-2.0-11.0-0.14","1066.4000000953674","","","stimuli/Set_1_rs/091a.jpg","67","","","TR","o","true","o","","","","","","","","","","",""
"image-keyboard-response","117","403651","0.0-2.0-11.0-0.15","1747.6000001430511","","","stimuli/Set_1_rs/108a.jpg","77","","","TF","n","true","n","","","","","","","","","","",""
"image-keyboard-response","118","408154","0.0-2.0-11.0-0.16","2604.5999999046326","","","stimuli/Set_1_rs/146a.jpg","67","","","TF","n","false","o","","","","","","","","","","",""
"image-keyboard-response","119","412656","0.0-2.0-11.0-0.17","1558","","","stimuli/Set_1_rs/013b.jpg","66","","","TL","s","true","s","","","","","","","","","","",""
"image-keyboard-response","120","417160","0.0-2.0-11.0-0.18","1583.7999999523163","","","stimuli/Set_1_rs/141a.jpg","77","","","TF","n","true","n","","","","","","","","","","",""
"image-keyboard-response","121","421663","0.0-2.0-11.0-0.19","1176.0999999046326","","","stimuli/Set_1_rs/156b.jpg","67","","","TL","s","false","o","","","","","","","","","","",""
"image-keyboard-response","122","426167","0.0-2.0-11.0-0.20","1696.5999999046326","","","stimuli/Set_1_rs/024a.jpg","67","","","TR","o","true","o","","","","","","","","","","",""
"image-keyboard-response","123","430669","0.0-2.0-11.0-0.21","1897.0999999046326","","","stimuli/Set_1_rs/046a.jpg","67","","","TR","o","true","o","","","","","","","","","","",""
"image-keyboard-response","124","435172","0.0-2.0-11.0-0.22","1202.3000001907349","","","stimuli/Set_1_rs/100b.jpg","66","","","TL","s","true","s","","","","","","","","","","",""
"image-keyboard-response","125","439676","0.0-2.0-11.0-0.23","1643.4000000953674","","","stimuli/Set_1_rs/080a.jpg","77","","","TF","n","true","n","","","","","","","","","","",""
"image-keyboard-response","126","444178","0.0-2.0-11.0-0.24","1268.4000000953674","","","stimuli/Set_1_rs/094b.jpg","67","","","TL","s","false","o","","","","","","","","","","",""
"image-keyboard-response","127","448682","0.0-2.0-11.0-0.25","1901.2999999523163","","","stimuli/Set_1_rs/190a.jpg","66","","","TF","n","false","s","","","","","","","","","","",""
"image-keyboard-response","128","453185","0.0-2.0-11.0-0.26","1685.9000000953674","","","stimuli/Set_1_rs/137a.jpg","67","","","TR","o","true","o","","","","","","","","","","",""
"image-keyboard-response","129","457688","0.0-2.0-11.0-0.27","1070.7999999523163","","","stimuli/Set_1_rs/180a.jpg","67","","","TR","o","true","o","","","","","","","","","","",""
"image-keyboard-response","130","462190","0.0-2.0-11.0-0.28","1336","","","stimuli/Set_1_rs/134b.jpg","66","","","TL","s","true","s","","","","","","","","","","",""
"image-keyboard-response","131","466693","0.0-2.0-11.0-0.29","1329.5","","","stimuli/Set_1_rs/088a.jpg","77","","","TF","n","true","n","","","","","","","","","","",""
"image-keyboard-response","132","471197","0.0-2.0-11.0-0.30","1786.5999999046326","","","stimuli/Set_1_rs/165a.jpg","77","","","TF","n","true","n","","","","","","","","","","",""
"image-keyboard-response","133","475699","0.0-2.0-11.0-0.31","1635.2000000476837","","","stimuli/Set_1_rs/075b.jpg","66","","","TL","s","true","s","","","","","","","","","","",""
"image-keyboard-response","134","480201","0.0-2.0-11.0-0.32","1116.4000000953674","","","stimuli/Set_1_rs/191a.jpg","67","","","TR","o","true","o","","","","","","","","","","",""
"image-keyboard-response","135","484704","0.0-2.0-11.0-0.33","1126.0999999046326","","","stimuli/Set_1_rs/112a.jpg","67","","","TR","o","true","o","","","","","","","","","","",""
"image-keyboard-response","136","489208","0.0-2.0-11.0-0.34","1199","","","stimuli/Set_1_rs/171a.jpg","77","","","TF","n","true","n","","","","","","","","","","",""
"image-keyboard-response","137","493711","0.0-2.0-11.0-0.35","1047.6000001430511","","","stimuli/Set_1_rs/021a.jpg","67","","","TR","o","true","o","","","","","","","","","","",""
"image-keyboard-response","138","498214","0.0-2.0-11.0-0.36","1104.4000000953674","","","stimuli/Set_1_rs/157a.jpg","67","","","TR","o","true","o","","","","","","","","","","",""
"image-keyboard-response","139","502717","0.0-2.0-11.0-0.37","1561.3999998569489","","","stimuli/Set_1_rs/059b.jpg","66","","","TL","s","true","s","","","","","","","","","","",""
"image-keyboard-response","140","507220","0.0-2.0-11.0-0.38","1282.2000000476837","","","stimuli/Set_1_rs/153a.jpg","67","","","TR","o","true","o","","","","","","","","","","",""
"image-keyboard-response","141","511723","0.0-2.0-11.0-0.39","1243.3999998569489","","","stimuli/Set_1_rs/002a.jpg","77","","","TF","n","true","n","","","","","","","","","","",""
"image-keyboard-response","142","516226","0.0-2.0-11.0-0.40","1140.2999999523163","","","stimuli/Set_1_rs/041a.jpg","77","","","TF","n","true","n","","","","","","","","","","",""
"image-keyboard-response","143","520729","0.0-2.0-11.0-0.41","1853.4000000953674","","","stimuli/Set_1_rs/012b.jpg","66","","","TL","s","true","s","","","","","","","","","","",""
"image-keyboard-response","144","525232","0.0-2.0-11.0-0.42","1557.7999999523163","","","stimuli/Set_1_rs/083b.jpg","67","","","TL","s","false","o","","","","","","","","","","",""
"image-keyboard-response","145","529736","0.0-2.0-11.0-0.43","1902.6000001430511","","","stimuli/Set_1_rs/051a.jpg","77","","","TF","n","true","n","","","","","","","","","","",""
"image-keyboard-response","146","534239","0.0-2.0-11.0-0.44","1478.7000000476837","","","stimuli/Set_1_rs/168a.jpg","77","","","TF","n","true","n","","","","","","","","","","",""
"image-keyboard-response","147","538743","0.0-2.0-11.0-0.45","1487.5","","","stimuli/Set_1_rs/155b.jpg","77","","","TL","s","false","n","","","","","","","","","","",""
"image-keyboard-response","148","543246","0.0-2.0-11.0-0.46","2216.7000000476837","","","stimuli/Set_1_rs/045b.jpg","66","","","TL","s","true","s","","","","","","","","","","",""
"image-keyboard-response","149","547748","0.0-2.0-11.0-0.47","1585.2999999523163","","","stimuli/Set_1_rs/031b.jpg","66","","","TL","s","true","s","","","","","","","","","","",""
"image-keyboard-response","150","552252","0.0-2.0-11.0-0.48","1386.6000001430511","","","stimuli/Set_1_rs/136a.jpg","67","","","TR","o","true","o","","","","","","","","","","",""
"image-keyboard-response","151","556755","0.0-2.0-11.0-0.49","1330.7000000476837","","","stimuli/Set_1_rs/053a.jpg","77","","","TF","n","true","n","","","","","","","","","","",""
"image-keyboard-response","152","561259","0.0-2.0-11.0-0.50","1275.2000000476837","","","stimuli/Set_1_rs/061b.jpg","66","","","TL","s","true","s","","","","","","","","","","",""
"image-keyboard-response","153","565761","0.0-2.0-11.0-0.51","1172.2000000476837","","","stimuli/Set_1_rs/062a.jpg","77","","","TF","n","true","n","","","","","","","","","","",""
"image-keyboard-response","154","570264","0.0-2.0-11.0-0.52","1421.2999999523163","","","stimuli/Set_1_rs/009a.jpg","67","","","TR","o","true","o","","","","","","","","","","",""
"image-keyboard-response","155","574768","0.0-2.0-11.0-0.53","2054.2999999523163","","","stimuli/Set_1_rs/099b.jpg","66","","","TL","s","true","s","","","","","","","","","","",""
"image-keyboard-response","156","579271","0.0-2.0-11.0-0.54","1790.5","","","stimuli/Set_1_rs/030a.jpg","67","","","TR","o","true","o","","","","","","","","","","",""
"image-keyboard-response","157","583774","0.0-2.0-11.0-0.55","855.2999999523163","","","stimuli/Set_1_rs/029a.jpg","67","","","TR","o","true","o","","","","","","","","","","",""
"image-keyboard-response","158","588277","0.0-2.0-11.0-0.56","1857.0999999046326","","","stimuli/Set_1_rs/140b.jpg","67","","","TL","s","false","o","","","","","","","","","","",""
"image-keyboard-response","159","592779","0.0-2.0-11.0-0.57","1194","","","stimuli/Set_1_rs/182a.jpg","77","","","TF","n","true","n","","","","","","","","","","",""
"image-keyboard-response","160","597282","0.0-2.0-11.0-0.58","1411.0999999046326","","","stimuli/Set_1_rs/151a.jpg","77","","","TF","n","true","n","","","","","","","","","","",""
"image-keyboard-response","161","601785","0.0-2.0-11.0-0.59","1164.2000000476837","","","stimuli/Set_1_rs/142a.jpg","67","","","TR","o","true","o","","","","","","","","","","",""
"image-keyboard-response","162","606288","0.0-2.0-11.0-0.60","1317.5","","","stimuli/Set_1_rs/070a.jpg","66","","","TR","o","false","s","","","","","","","","","","",""
"image-keyboard-response","163","610791","0.0-2.0-11.0-0.61","1293.9000000953674","","","stimuli/Set_1_rs/121a.jpg","77","","","TF","n","true","n","","","","","","","","","","",""
"image-keyboard-response","164","615295","0.0-2.0-11.0-0.62","2054.800000190735","","","stimuli/Set_1_rs/008b.jpg","66","","","TL","s","true","s","","","","","","","","","","",""
"image-keyboard-response","165","619798","0.0-2.0-11.0-0.63","1599","","","stimuli/Set_1_rs/092b.jpg","66","","","TL","s","true","s","","","","","","","","","","",""
"image-keyboard-response","166","624301","0.0-2.0-11.0-0.64","935.7999999523163","","","stimuli/Set_1_rs/192a.jpg","67","","","TR","o","true","o","","","","","","","","","","",""
"image-keyboard-response","167","628805","0.0-2.0-11.0-0.65","1201","","","stimuli/Set_1_rs/147a.jpg","67","","","TR","o","true","o","","","","","","","","","","",""
"image-keyboard-response","168","633308","0.0-2.0-11.0-0.66","1049.2000000476837","","","stimuli/Set_1_rs/032a.jpg","77","","","TF","n","true","n","","","","","","","","","","",""
"image-keyboard-response","169","637810","0.0-2.0-11.0-0.67","1890.5","","","stimuli/Set_1_rs/128b.jpg","66","","","TL","s","true","s","","","","","","","","","","",""
"image-keyboard-response","170","642313","0.0-2.0-11.0-0.68","1227.9000000953674","","","stimuli/Set_1_rs/186a.jpg","77","","","TF","n","true","n","","","","","","","","","","",""
"image-keyboard-response","171","646816","0.0-2.0-11.0-0.69","1605.3999998569489","","","stimuli/Set_1_rs/109a.jpg","66","","","TR","o","false","s","","","","","","","","","","",""
"image-keyboard-response","172","651319","0.0-2.0-11.0-0.70","1741.5999999046326","","","stimuli/Set_1_rs/160a.jpg","77","","","TF","n","true","n","","","","","","","","","","",""
"image-keyboard-response","173","655822","0.0-2.0-11.0-0.71","1270.2000000476837","","","stimuli/Set_1_rs/086a.jpg","67","","","TR","o","true","o","","","","","","","","","","",""
"image-keyboard-response","174","660326","0.0-2.0-11.0-0.72","1871","","","stimuli/Set_1_rs/023b.jpg","66","","","TL","s","true","s","","","","","","","","","","",""
"image-keyboard-response","175","664828","0.0-2.0-11.0-0.73","1447.8000001907349","","","stimuli/Set_1_rs/114b.jpg","66","","","TL","s","true","s","","","","","","","","","","",""
"image-keyboard-response","176","669332","0.0-2.0-11.0-0.74","1281.5","","","stimuli/Set_1_rs/033b.jpg","66","","","TL","s","true","s","","","","","","","","","","",""
"image-keyboard-response","177","673835","0.0-2.0-11.0-0.75","1561.8000001907349","","","stimuli/Set_1_rs/010a.jpg","67","","","TR","o","true","o","","","","","","","","","","",""
"image-keyboard-response","178","678338","0.0-2.0-11.0-0.76","1187.2999999523163","","","stimuli/Set_1_rs/150a.jpg","67","","","TR","o","true","o","","","","","","","","","","",""
"image-keyboard-response","179","682841","0.0-2.0-11.0-0.77","1131.8999998569489","","","stimuli/Set_1_rs/038a.jpg","67","","","TR","o","true","o","","","","","","","","","","",""
"image-keyboard-response","180","687345","0.0-2.0-11.0-0.78","1652.4000000953674","","","stimuli/Set_1_rs/022b.jpg","67","","","TL","s","false","o","","","","","","","","","","",""
"image-keyboard-response","181","691848","0.0-2.0-11.0-0.79","1132.7000000476837","","","stimuli/Set_1_rs/018a.jpg","77","","","TF","n","true","n","","","","","","","","","","",""
"image-keyboard-response","182","696351","0.0-2.0-11.0-0.80","2501.2000000476837","","","stimuli/Set_1_rs/081a.jpg","77","","","TF","n","true","n","","","","","","","","","","",""
"image-keyboard-response","183","700854","0.0-2.0-11.0-0.81","1358.2000000476837","","","stimuli/Set_1_rs/107a.jpg","67","","","TR","o","true","o","","","","","","","","","","",""
"image-keyboard-response","184","705356","0.0-2.0-11.0-0.82","1383.7999999523163","","","stimuli/Set_1_rs/101b.jpg","67","","","TL","s","false","o","","","","","","","","","","",""
"image-keyboard-response","185","709859","0.0-2.0-11.0-0.83","1841","","","stimuli/Set_1_rs/178b.jpg","66","","","TL","s","true","s","","","","","","","","","","",""
"image-keyboard-response","186","714363","0.0-2.0-11.0-0.84","1306.2999999523163","","","stimuli/Set_1_rs/103b.jpg","66","","","TL","s","true","s","","","","","","","","","","",""
"image-keyboard-response","187","718865","0.0-2.0-11.0-0.85","1778.6999998092651","","","stimuli/Set_1_rs/116b.jpg","66","","","TL","s","true","s","","","","","","","","","","",""
"image-keyboard-response","188","723368","0.0-2.0-11.0-0.86","1292","","","stimuli/Set_1_rs/122a.jpg","77","","","TF","n","true","n","","","","","","","","","","",""
"image-keyboard-response","189","727872","0.0-2.0-11.0-0.87","1333.0999999046326","","","stimuli/Set_1_rs/044a.jpg","77","","","TR","o","false","n","","","","","","","","","","",""
"image-keyboard-response","190","732375","0.0-2.0-11.0-0.88","1773.1000001430511","","","stimuli/Set_1_rs/049a.jpg","67","","","TR","o","true","o","","","","","","","","","","",""
"image-keyboard-response","191","736879","0.0-2.0-11.0-0.89","1206.5","","","stimuli/Set_1_rs/118a.jpg","67","","","TR","o","true","o","","","","","","","","","","",""
"image-keyboard-response","192","741381","0.0-2.0-11.0-0.90","1198.6000001430511","","","stimuli/Set_1_rs/040a.jpg","67","","","TR","o","true","o","","","","","","","","","","",""
"image-keyboard-response","193","745885","0.0-2.0-11.0-0.91","1591.7999999523163","","","stimuli/Set_1_rs/011b.jpg","66","","","TL","s","true","s","","","","","","","","","","",""
"image-keyboard-response","194","750387","0.0-2.0-11.0-0.92","1136.3999998569489","","","stimuli/Set_1_rs/087a.jpg","77","","","TF","n","true","n","","","","","","","","","","",""
"image-keyboard-response","195","754891","0.0-2.0-11.0-0.93","1161.5999999046326","","","stimuli/Set_1_rs/063a.jpg","67","","","TR","o","true","o","","","","","","","","","","",""
"image-keyboard-response","196","759393","0.0-2.0-11.0-0.94","1906.2999999523163","","","stimuli/Set_1_rs/098b.jpg","66","","","TL","s","true","s","","","","","","","","","","",""
"image-keyboard-response","197","763896","0.0-2.0-11.0-0.95","1787.7000000476837","","","stimuli/Set_1_rs/058a.jpg","67","","","TR","o","true","o","","","","","","","","","","",""
"html-keyboard-response","198","775184","0.0-3.0","11285.5","","","<p>Vége a feladatnak. Köszönjük a részvételt!</p>","32","","","","","","","31","2","1","7","24","3","1","4","29","0.8823529411764706","0.5882352941176471"
