"trial_type","trial_index","time_elapsed","internal_node_id","rt","responses","success","stimulus","key_press","cond","enc_response","condition","correct_response","correct","rec_response","targ_old","targ_sim","targ_new","lure_old","lure_sim","lure_new","foil_old","foil_sim","foil_new","recognition_ratio","ldi"
"pavlovia","0","5","0.0-0.0","","","","","","","","","","","","","","","","","","","","","",""
"survey-multi-choice","1","5325","0.0-1.0","5317.799999952316","{""Q0"":""Igen"",""Q1"":""Igen""}","","","","","","","","","","","","","","","","","","","",""
"survey-text","2","27044","0.0-2.0-0.0","21716.599999904633","{""Q0"":""690719""}","","","","","","","","","","","","","","","","","","","",""
"fullscreen","3","28857","0.0-2.0-1.0","","","true","","","","","","","","","","","","","","","","","","",""
"html-keyboard-response","4","32950","0.0-2.0-2.0","4091.0999999046326","","","<p>Üdvözöljük! Ez a feladat két részből áll, és összesen 10-15 percet vesz igénybe.</p>","32","","","","","","","","","","","","","","","","",""
"html-keyboard-response","5","96197","0.0-2.0-3.0-0.0","63245.60000014305","","","<p>Az első részben tárgyakat lát majd a képernyőn, egymás után fognak megjelenni.<br>Az Ön feladata eldönteni, hogy a tárgyak <i>beltéri vagy kültéri</i> tárgyak-e.</p>						   <p>Amennyiben a tárgyat általában beltéren látja, nyomja le a <b>C</b> billentyűt. Amennyiben a tárgyat általában kültéren látja, nyomja le az <b>M</b> billentyűt.</p>						   <p>Ebben a feladatban nincsen mindig egyértelműen jó megoldás. Válaszoljon legjobb tudása szerint. A válaszadásra 2 másodperce lesz.","32","","","","","","","","","","","","","","","","",""
"html-keyboard-response","6","98199","0.0-2.0-3.0-1.0","null","","","<p>Kezdődik a gyakorlás...</p>","null","","","","","","","","","","","","","","","","",""
"image-keyboard-response","7","100204","0.0-2.0-4.0-0.0","1754.0999999046326","","","stimuli/Set_2_rs/165b.jpg","77","-","outdoor","","","","","","","","","","","","","","",""
"html-keyboard-response","8","103044","0.0-2.0-4.0-1.0","2337","","","<p>Az Ön válasza:</p><p>Kültéri.</p>","32","","","","","","","","","","","","","","","","",""
"image-keyboard-response","9","105047","0.0-2.0-4.0-0.1","1661.7999999523163","","","stimuli/Set_2_rs/034a.jpg","67","-","indoor","","","","","","","","","","","","","","",""
"html-keyboard-response","10","106949","0.0-2.0-4.0-1.1","1400","","","<p>Az Ön válasza:</p><p>Beltéri.</p>","32","","","","","","","","","","","","","","","","",""
"image-keyboard-response","11","108952","0.0-2.0-4.0-0.2","1198.0999999046326","","","stimuli/Set_2_rs/049a.jpg","77","SL","outdoor","","","","","","","","","","","","","","",""
"html-keyboard-response","12","109940","0.0-2.0-4.0-1.2","487.09999990463257","","","<p>Az Ön válasza:</p><p>Kültéri.</p>","32","","","","","","","","","","","","","","","","",""
"image-keyboard-response","13","111942","0.0-2.0-4.0-0.3","910.8999998569489","","","stimuli/Set_2_rs/028a.jpg","67","SR","indoor","","","","","","","","","","","","","","",""
"html-keyboard-response","14","112804","0.0-2.0-4.0-1.3","358.90000009536743","","","<p>Az Ön válasza:</p><p>Beltéri.</p>","32","","","","","","","","","","","","","","","","",""
"image-keyboard-response","15","114807","0.0-2.0-4.0-0.4","958.3999998569489","","","stimuli/Set_2_rs/135a.jpg","67","SL","indoor","","","","","","","","","","","","","","",""
"html-keyboard-response","16","115668","0.0-2.0-4.0-1.4","360.10000014305115","","","<p>Az Ön válasza:</p><p>Beltéri.</p>","32","","","","","","","","","","","","","","","","",""
"image-keyboard-response","17","117670","0.0-2.0-4.0-0.5","1758.9000000953674","","","stimuli/Set_2_rs/137a.jpg","67","SR","indoor","","","","","","","","","","","","","","",""
"html-keyboard-response","18","118628","0.0-2.0-4.0-1.5","456.90000009536743","","","<p>Az Ön válasza:</p><p>Beltéri.</p>","32","","","","","","","","","","","","","","","","",""
"html-keyboard-response","19","127876","0.0-2.0-5.0-0.0","9247.299999952316","","","<p>Ez volt a gyakorlás. A feladat következik. A feladat alatt már nem kap visszajelzést.</p>","32","","","","","","","","","","","","","","","","",""
"html-keyboard-response","20","129877","0.0-2.0-5.0-1.0","null","","","<p>Kezdődik a feladat...</p>","null","","","","","","","","","","","","","","","","",""
"image-keyboard-response","21","132380","0.0-2.0-6.0-0.0","1788.9000000953674","","","stimuli/Set_1_rs/157a.jpg","77","","outdoor","SR","","","","","","","","","","","","","",""
"image-keyboard-response","22","134883","0.0-2.0-6.0-0.1","934.7000000476837","","","stimuli/Set_1_rs/009a.jpg","67","","indoor","SR","","","","","","","","","","","","","",""
"image-keyboard-response","23","137385","0.0-2.0-6.0-0.2","1360.2000000476837","","","stimuli/Set_1_rs/059a.jpg","67","","indoor","SL","","","","","","","","","","","","","",""
"image-keyboard-response","24","139886","0.0-2.0-6.0-0.3","1418.2000000476837","","","stimuli/Set_1_rs/024a.jpg","67","","indoor","SR","","","","","","","","","","","","","",""
"image-keyboard-response","25","142388","0.0-2.0-6.0-0.4","1332","","","stimuli/Set_1_rs/101a.jpg","77","","outdoor","SL","","","","","","","","","","","","","",""
"image-keyboard-response","26","144891","0.0-2.0-6.0-0.5","1038.7000000476837","","","stimuli/Set_1_rs/137a.jpg","77","","outdoor","SR","","","","","","","","","","","","","",""
"image-keyboard-response","27","147392","0.0-2.0-6.0-0.6","1240.0999999046326","","","stimuli/Set_1_rs/011a.jpg","67","","indoor","SL","","","","","","","","","","","","","",""
"image-keyboard-response","28","149895","0.0-2.0-6.0-0.7","1570.5999999046326","","","stimuli/Set_1_rs/128a.jpg","77","","outdoor","SL","","","","","","","","","","","","","",""
"image-keyboard-response","29","152397","0.0-2.0-6.0-0.8","1003.5","","","stimuli/Set_1_rs/083a.jpg","67","","indoor","SL","","","","","","","","","","","","","",""
"image-keyboard-response","30","154899","0.0-2.0-6.0-0.9","1509.6000001430511","","","stimuli/Set_1_rs/136a.jpg","67","","indoor","SR","","","","","","","","","","","","","",""
"image-keyboard-response","31","157401","0.0-2.0-6.0-0.10","944.1999998092651","","","stimuli/Set_1_rs/103a.jpg","67","","indoor","SL","","","","","","","","","","","","","",""
"image-keyboard-response","32","159903","0.0-2.0-6.0-0.11","666.7000000476837","","","stimuli/Set_1_rs/086a.jpg","67","","indoor","SR","","","","","","","","","","","","","",""
"image-keyboard-response","33","162405","0.0-2.0-6.0-0.12","1251.7999999523163","","","stimuli/Set_1_rs/099a.jpg","77","","outdoor","SL","","","","","","","","","","","","","",""
"image-keyboard-response","34","164907","0.0-2.0-6.0-0.13","734.1999998092651","","","stimuli/Set_1_rs/178a.jpg","67","","indoor","SL","","","","","","","","","","","","","",""
"image-keyboard-response","35","167408","0.0-2.0-6.0-0.14","1176.6999998092651","","","stimuli/Set_1_rs/134a.jpg","67","","indoor","SL","","","","","","","","","","","","","",""
"image-keyboard-response","36","169910","0.0-2.0-6.0-0.15","866.8999998569489","","","stimuli/Set_1_rs/156a.jpg","67","","indoor","SL","","","","","","","","","","","","","",""
"image-keyboard-response","37","172412","0.0-2.0-6.0-0.16","700.6999998092651","","","stimuli/Set_1_rs/054a.jpg","67","","indoor","SR","","","","","","","","","","","","","",""
"image-keyboard-response","38","174915","0.0-2.0-6.0-0.17","1031.2000000476837","","","stimuli/Set_1_rs/092a.jpg","77","","outdoor","SL","","","","","","","","","","","","","",""
"image-keyboard-response","39","177416","0.0-2.0-6.0-0.18","1088.5999999046326","","","stimuli/Set_1_rs/031a.jpg","67","","indoor","SL","","","","","","","","","","","","","",""
"image-keyboard-response","40","179917","0.0-2.0-6.0-0.19","1147.2999999523163","","","stimuli/Set_1_rs/013a.jpg","77","","outdoor","SL","","","","","","","","","","","","","",""
"image-keyboard-response","41","182420","0.0-2.0-6.0-0.20","869.3000001907349","","","stimuli/Set_1_rs/075a.jpg","67","","indoor","SL","","","","","","","","","","","","","",""
"image-keyboard-response","42","184921","0.0-2.0-6.0-0.21","1423.8999998569489","","","stimuli/Set_1_rs/150a.jpg","67","","indoor","SR","","","","","","","","","","","","","",""
"image-keyboard-response","43","187424","0.0-2.0-6.0-0.22","1018.4000000953674","","","stimuli/Set_1_rs/094a.jpg","67","","indoor","SL","","","","","","","","","","","","","",""
"image-keyboard-response","44","189926","0.0-2.0-6.0-0.23","867.5","","","stimuli/Set_1_rs/090a.jpg","77","","outdoor","SL","","","","","","","","","","","","","",""
"image-keyboard-response","45","192428","0.0-2.0-6.0-0.24","1420.7999999523163","","","stimuli/Set_1_rs/192a.jpg","67","","indoor","SR","","","","","","","","","","","","","",""
"image-keyboard-response","46","194929","0.0-2.0-6.0-0.25","1175.2999999523163","","","stimuli/Set_1_rs/116a.jpg","77","","outdoor","SL","","","","","","","","","","","","","",""
"image-keyboard-response","47","197431","0.0-2.0-6.0-0.26","897.8000001907349","","","stimuli/Set_1_rs/044a.jpg","67","","indoor","SR","","","","","","","","","","","","","",""
"image-keyboard-response","48","199933","0.0-2.0-6.0-0.27","1036.6000001430511","","","stimuli/Set_1_rs/114a.jpg","67","","indoor","SL","","","","","","","","","","","","","",""
"image-keyboard-response","49","202435","0.0-2.0-6.0-0.28","1045.5","","","stimuli/Set_1_rs/112a.jpg","67","","indoor","SR","","","","","","","","","","","","","",""
"image-keyboard-response","50","204938","0.0-2.0-6.0-0.29","927.7999999523163","","","stimuli/Set_1_rs/052a.jpg","67","","indoor","SL","","","","","","","","","","","","","",""
"image-keyboard-response","51","207440","0.0-2.0-6.0-0.30","729.5999999046326","","","stimuli/Set_1_rs/058a.jpg","67","","indoor","SR","","","","","","","","","","","","","",""
"image-keyboard-response","52","209942","0.0-2.0-6.0-0.31","867.3999998569489","","","stimuli/Set_1_rs/023a.jpg","67","","indoor","SL","","","","","","","","","","","","","",""
"image-keyboard-response","53","212444","0.0-2.0-6.0-0.32","1084.5","","","stimuli/Set_1_rs/030a.jpg","77","","outdoor","SR","","","","","","","","","","","","","",""
"image-keyboard-response","54","214946","0.0-2.0-6.0-0.33","790.7000000476837","","","stimuli/Set_1_rs/091a.jpg","77","","outdoor","SR","","","","","","","","","","","","","",""
"image-keyboard-response","55","217448","0.0-2.0-6.0-0.34","1297.1999998092651","","","stimuli/Set_1_rs/147a.jpg","67","","indoor","SR","","","","","","","","","","","","","",""
"image-keyboard-response","56","219950","0.0-2.0-6.0-0.35","1147.4000000953674","","","stimuli/Set_1_rs/063a.jpg","67","","indoor","SR","","","","","","","","","","","","","",""
"image-keyboard-response","57","222452","0.0-2.0-6.0-0.36","980.7999999523163","","","stimuli/Set_1_rs/040a.jpg","77","","outdoor","SR","","","","","","","","","","","","","",""
"image-keyboard-response","58","224953","0.0-2.0-6.0-0.37","1519.0999999046326","","","stimuli/Set_1_rs/038a.jpg","67","","indoor","SR","","","","","","","","","","","","","",""
"image-keyboard-response","59","227456","0.0-2.0-6.0-0.38","985.3999998569489","","","stimuli/Set_1_rs/100a.jpg","67","","indoor","SL","","","","","","","","","","","","","",""
"image-keyboard-response","60","229957","0.0-2.0-6.0-0.39","995.2999999523163","","","stimuli/Set_1_rs/109a.jpg","67","","indoor","SR","","","","","","","","","","","","","",""
"image-keyboard-response","61","232459","0.0-2.0-6.0-0.40","941.5","","","stimuli/Set_1_rs/191a.jpg","67","","indoor","SR","","","","","","","","","","","","","",""
"image-keyboard-response","62","234960","0.0-2.0-6.0-0.41","823.7000000476837","","","stimuli/Set_1_rs/061a.jpg","67","","indoor","SL","","","","","","","","","","","","","",""
"image-keyboard-response","63","237463","0.0-2.0-6.0-0.42","626.3999998569489","","","stimuli/Set_1_rs/162a.jpg","77","","outdoor","SR","","","","","","","","","","","","","",""
"image-keyboard-response","64","239965","0.0-2.0-6.0-0.43","556","","","stimuli/Set_1_rs/046a.jpg","77","","outdoor","SR","","","","","","","","","","","","","",""
"image-keyboard-response","65","242467","0.0-2.0-6.0-0.44","933.2000000476837","","","stimuli/Set_1_rs/155a.jpg","77","","outdoor","SL","","","","","","","","","","","","","",""
"image-keyboard-response","66","244970","0.0-2.0-6.0-0.45","831.3999998569489","","","stimuli/Set_1_rs/010a.jpg","67","","indoor","SR","","","","","","","","","","","","","",""
"image-keyboard-response","67","247473","0.0-2.0-6.0-0.46","728.6000001430511","","","stimuli/Set_1_rs/142a.jpg","67","","indoor","SR","","","","","","","","","","","","","",""
"image-keyboard-response","68","249975","0.0-2.0-6.0-0.47","850","","","stimuli/Set_1_rs/045a.jpg","67","","indoor","SL","","","","","","","","","","","","","",""
"image-keyboard-response","69","252478","0.0-2.0-6.0-0.48","1227.1999998092651","","","stimuli/Set_1_rs/070a.jpg","67","","indoor","SR","","","","","","","","","","","","","",""
"image-keyboard-response","70","254981","0.0-2.0-6.0-0.49","948.6000001430511","","","stimuli/Set_1_rs/022a.jpg","67","","indoor","SL","","","","","","","","","","","","","",""
"image-keyboard-response","71","257483","0.0-2.0-6.0-0.50","1661.8000001907349","","","stimuli/Set_1_rs/021a.jpg","67","","indoor","SR","","","","","","","","","","","","","",""
"image-keyboard-response","72","259986","0.0-2.0-6.0-0.51","999.5999999046326","","","stimuli/Set_1_rs/098a.jpg","67","","indoor","SL","","","","","","","","","","","","","",""
"image-keyboard-response","73","262488","0.0-2.0-6.0-0.52","1056.2000000476837","","","stimuli/Set_1_rs/008a.jpg","67","","indoor","SL","","","","","","","","","","","","","",""
"image-keyboard-response","74","264990","0.0-2.0-6.0-0.53","906.2999999523163","","","stimuli/Set_1_rs/012a.jpg","67","","indoor","SL","","","","","","","","","","","","","",""
"image-keyboard-response","75","267492","0.0-2.0-6.0-0.54","804.7000000476837","","","stimuli/Set_1_rs/153a.jpg","77","","outdoor","SR","","","","","","","","","","","","","",""
"image-keyboard-response","76","269995","0.0-2.0-6.0-0.55","1022.2000000476837","","","stimuli/Set_1_rs/068a.jpg","77","","outdoor","SL","","","","","","","","","","","","","",""
"image-keyboard-response","77","272498","0.0-2.0-6.0-0.56","758.7999999523163","","","stimuli/Set_1_rs/140a.jpg","67","","indoor","SL","","","","","","","","","","","","","",""
"image-keyboard-response","78","275000","0.0-2.0-6.0-0.57","1344.5","","","stimuli/Set_1_rs/029a.jpg","67","","indoor","SR","","","","","","","","","","","","","",""
"image-keyboard-response","79","277502","0.0-2.0-6.0-0.58","681.8999998569489","","","stimuli/Set_1_rs/049a.jpg","77","","outdoor","SR","","","","","","","","","","","","","",""
"image-keyboard-response","80","280004","0.0-2.0-6.0-0.59","804.5999999046326","","","stimuli/Set_1_rs/180a.jpg","67","","indoor","SR","","","","","","","","","","","","","",""
"image-keyboard-response","81","282507","0.0-2.0-6.0-0.60","1101.7000000476837","","","stimuli/Set_1_rs/033a.jpg","67","","indoor","SL","","","","","","","","","","","","","",""
"image-keyboard-response","82","285008","0.0-2.0-6.0-0.61","1399.8999998569489","","","stimuli/Set_1_rs/119a.jpg","67","","indoor","SL","","","","","","","","","","","","","",""
"image-keyboard-response","83","287510","0.0-2.0-6.0-0.62","962.2999999523163","","","stimuli/Set_1_rs/118a.jpg","77","","outdoor","SR","","","","","","","","","","","","","",""
"image-keyboard-response","84","290012","0.0-2.0-6.0-0.63","972.6000001430511","","","stimuli/Set_1_rs/107a.jpg","77","","outdoor","SR","","","","","","","","","","","","","",""
"html-keyboard-response","85","293892","0.0-2.0-7.0","3878.699999809265","","","<p>Vége a feladat első részének. Tartson egy pár perces szünetet.</p>","32","","","","","","","","","","","","","","","","",""
"html-keyboard-response","86","323716","0.0-2.0-8.0-0.0","29823.299999952316","","","<p>A következőkben ismét tárgyak jelennek majd meg a képernyőn, egymás után.<br>Az Ön feladata eldönteni, látta-e már ezeket a tárgyakat a vizsgálat első felében.</p>		        			<p>Amennyiben pontosan ugyanezt a tárgyat látta (a tárgy <i>régi</i>), nyomja le a <b>C</b> billentyűt.</p>		        			<p>Amennyiben hasonló tárgyat látott (a tárgy <i>hasonló</i>), nyomja le a <b>B</b> billentyűt.</p>		        			<p>Amennyiben nem látta ezt a tárgyat az első részben (a tárgy <i>új</i>), nyomja le az <b>M</b> billentyűt.</p>","32","","","","","","","","","","","","","","","","",""
"html-keyboard-response","87","325717","0.0-2.0-8.0-1.0","null","","","<p>Kezdődik a gyakorlás...</p>","null","","","","","","","","","","","","","","","","",""
"image-keyboard-response","88","329720","0.0-2.0-9.0-0.0","2156.0999999046326","","","stimuli/Set_2_rs/049b.jpg","67","","","TL","l","false","o","","","","","","","","","","",""
"html-keyboard-response","89","331491","0.0-2.0-9.0-1.0","1769.6000001430511","","","<p>A helyes válasz: Hasonló.</p><p>Az Ön válasza: Régi.</p>","32","","","","","","","","","","","","","","","","",""
"image-keyboard-response","90","335494","0.0-2.0-9.0-0.1","1966.2000000476837","","","stimuli/Set_2_rs/018b.jpg","66","","","TF","n","false","s","","","","","","","","","","",""
"html-keyboard-response","91","338051","0.0-2.0-9.0-1.1","2556.2000000476837","","","<p>A helyes válasz: Új.</p><p>Az Ön válasza: Hasonló.</p>","32","","","","","","","","","","","","","","","","",""
"image-keyboard-response","92","342054","0.0-2.0-9.0-0.2","2173.7999999523163","","","stimuli/Set_2_rs/028a.jpg","77","","","TR","o","false","n","","","","","","","","","","",""
"html-keyboard-response","93","344451","0.0-2.0-9.0-1.2","2396.199999809265","","","<p>A helyes válasz: Régi.</p><p>Az Ön válasza: Új.</p>","32","","","","","","","","","","","","","","","","",""
"image-keyboard-response","94","348454","0.0-2.0-9.0-0.3","1694.1999998092651","","","stimuli/Set_2_rs/137a.jpg","67","","","TR","o","true","o","","","","","","","","","","",""
"html-keyboard-response","95","349331","0.0-2.0-9.0-1.3","876.4000000953674","","","<p>A helyes válasz: Régi.</p><p>Az Ön válasza: Régi.</p>","32","","","","","","","","","","","","","","","","",""
"image-keyboard-response","96","353334","0.0-2.0-9.0-0.4","1918.0999999046326","","","stimuli/Set_2_rs/135b.jpg","67","","","TL","l","false","o","","","","","","","","","","",""
"html-keyboard-response","97","354211","0.0-2.0-9.0-1.4","875.5","","","<p>A helyes válasz: Hasonló.</p><p>Az Ön válasza: Régi.</p>","32","","","","","","","","","","","","","","","","",""
"image-keyboard-response","98","358214","0.0-2.0-9.0-0.5","2750.0999999046326","","","stimuli/Set_2_rs/019a.jpg","66","","","TF","n","false","s","","","","","","","","","","",""
"html-keyboard-response","99","359523","0.0-2.0-9.0-1.5","1308.2999999523163","","","<p>A helyes válasz: Új.</p><p>Az Ön válasza: Hasonló.</p>","32","","","","","","","","","","","","","","","","",""
"html-keyboard-response","100","363267","0.0-2.0-10.0-0.0","3743.2000000476837","","","<p>Ez volt a gyakorlás. A feladat következik. A feladat alatt már nem kap visszajelzést.</p>","32","","","","","","","","","","","","","","","","",""
"html-keyboard-response","101","365268","0.0-2.0-10.0-1.0","null","","","<p>Kezdődik a feladat...</p>","null","","","","","","","","","","","","","","","","",""
"image-keyboard-response","102","369771","0.0-2.0-11.0-0.0","1628.8000001907349","","","stimuli/Set_1_rs/181a.jpg","66","","","TF","n","false","s","","","","","","","","","","",""
"image-keyboard-response","103","374273","0.0-2.0-11.0-0.1","2230.0999999046326","","","stimuli/Set_1_rs/152a.jpg","77","","","TF","n","true","n","","","","","","","","","","",""
"image-keyboard-response","104","378776","0.0-2.0-11.0-0.2","1791.0999999046326","","","stimuli/Set_1_rs/090b.jpg","67","","","TL","s","false","o","","","","","","","","","","",""
"image-keyboard-response","105","383279","0.0-2.0-11.0-0.3","1464","","","stimuli/Set_1_rs/126a.jpg","77","","","TF","n","true","n","","","","","","","","","","",""
"image-keyboard-response","106","387781","0.0-2.0-11.0-0.4","1362","","","stimuli/Set_1_rs/068b.jpg","67","","","TL","s","false","o","","","","","","","","","","",""
"image-keyboard-response","107","392285","0.0-2.0-11.0-0.5","1210.9000000953674","","","stimuli/Set_1_rs/054a.jpg","67","","","TR","o","true","o","","","","","","","","","","",""
"image-keyboard-response","108","396787","0.0-2.0-11.0-0.6","1315.7000000476837","","","stimuli/Set_1_rs/162a.jpg","67","","","TR","o","true","o","","","","","","","","","","",""
"image-keyboard-response","109","401290","0.0-2.0-11.0-0.7","1644.9000000953674","","","stimuli/Set_1_rs/019a.jpg","77","","","TF","n","true","n","","","","","","","","","","",""
"image-keyboard-response","110","405794","0.0-2.0-11.0-0.8","1510","","","stimuli/Set_1_rs/119b.jpg","67","","","TL","s","false","o","","","","","","","","","","",""
"image-keyboard-response","111","410296","0.0-2.0-11.0-0.9","1102.1999998092651","","","stimuli/Set_1_rs/052b.jpg","67","","","TL","s","false","o","","","","","","","","","","",""
"image-keyboard-response","112","414799","0.0-2.0-11.0-0.10","1864.2999999523163","","","stimuli/Set_1_rs/135a.jpg","77","","","TF","n","true","n","","","","","","","","","","",""
"image-keyboard-response","113","419301","0.0-2.0-11.0-0.11","1633.5999999046326","","","stimuli/Set_1_rs/004a.jpg","67","","","TF","n","false","o","","","","","","","","","","",""
"image-keyboard-response","114","423804","0.0-2.0-11.0-0.12","1483.2000000476837","","","stimuli/Set_1_rs/072a.jpg","67","","","TF","n","false","o","","","","","","","","","","",""
"image-keyboard-response","115","428307","0.0-2.0-11.0-0.13","1332.0999999046326","","","stimuli/Set_1_rs/028a.jpg","67","","","TF","n","false","o","","","","","","","","","","",""
"image-keyboard-response","116","432810","0.0-2.0-11.0-0.14","1821.4000000953674","","","stimuli/Set_1_rs/091a.jpg","67","","","TR","o","true","o","","","","","","","","","","",""
"image-keyboard-response","117","437313","0.0-2.0-11.0-0.15","1686","","","stimuli/Set_1_rs/108a.jpg","66","","","TF","n","false","s","","","","","","","","","","",""
"image-keyboard-response","118","441816","0.0-2.0-11.0-0.16","1759","","","stimuli/Set_1_rs/146a.jpg","77","","","TF","n","true","n","","","","","","","","","","",""
"image-keyboard-response","119","446319","0.0-2.0-11.0-0.17","1688","","","stimuli/Set_1_rs/013b.jpg","66","","","TL","s","true","s","","","","","","","","","","",""
"image-keyboard-response","120","450822","0.0-2.0-11.0-0.18","1456.7000000476837","","","stimuli/Set_1_rs/141a.jpg","77","","","TF","n","true","n","","","","","","","","","","",""
"image-keyboard-response","121","455325","0.0-2.0-11.0-0.19","1113.8000001907349","","","stimuli/Set_1_rs/156b.jpg","77","","","TL","s","false","n","","","","","","","","","","",""
"image-keyboard-response","122","459828","0.0-2.0-11.0-0.20","1954.2000000476837","","","stimuli/Set_1_rs/024a.jpg","67","","","TR","o","true","o","","","","","","","","","","",""
"image-keyboard-response","123","464331","0.0-2.0-11.0-0.21","1323.7999999523163","","","stimuli/Set_1_rs/046a.jpg","77","","","TR","o","false","n","","","","","","","","","","",""
"image-keyboard-response","124","468834","0.0-2.0-11.0-0.22","1925.0999999046326","","","stimuli/Set_1_rs/100b.jpg","66","","","TL","s","true","s","","","","","","","","","","",""
"image-keyboard-response","125","473338","0.0-2.0-11.0-0.23","1565.2000000476837","","","stimuli/Set_1_rs/080a.jpg","77","","","TF","n","true","n","","","","","","","","","","",""
"image-keyboard-response","126","477841","0.0-2.0-11.0-0.24","1957.9000000953674","","","stimuli/Set_1_rs/094b.jpg","67","","","TL","s","false","o","","","","","","","","","","",""
"image-keyboard-response","127","482343","0.0-2.0-11.0-0.25","1023","","","stimuli/Set_1_rs/190a.jpg","77","","","TF","n","true","n","","","","","","","","","","",""
"image-keyboard-response","128","486846","0.0-2.0-11.0-0.26","1496","","","stimuli/Set_1_rs/137a.jpg","77","","","TR","o","false","n","","","","","","","","","","",""
"image-keyboard-response","129","491348","0.0-2.0-11.0-0.27","1489.9000000953674","","","stimuli/Set_1_rs/180a.jpg","67","","","TR","o","true","o","","","","","","","","","","",""
"image-keyboard-response","130","495852","0.0-2.0-11.0-0.28","1707.0999999046326","","","stimuli/Set_1_rs/134b.jpg","67","","","TL","s","false","o","","","","","","","","","","",""
"image-keyboard-response","131","500355","0.0-2.0-11.0-0.29","1267.7000000476837","","","stimuli/Set_1_rs/088a.jpg","77","","","TF","n","true","n","","","","","","","","","","",""
"image-keyboard-response","132","504858","0.0-2.0-11.0-0.30","1292.2999999523163","","","stimuli/Set_1_rs/165a.jpg","77","","","TF","n","true","n","","","","","","","","","","",""
"image-keyboard-response","133","509361","0.0-2.0-11.0-0.31","2037.3000001907349","","","stimuli/Set_1_rs/075b.jpg","67","","","TL","s","false","o","","","","","","","","","","",""
"image-keyboard-response","134","513867","0.0-2.0-11.0-0.32","1628.3999998569489","","","stimuli/Set_1_rs/191a.jpg","67","","","TR","o","true","o","","","","","","","","","","",""
"image-keyboard-response","135","518370","0.0-2.0-11.0-0.33","1604.2999999523163","","","stimuli/Set_1_rs/112a.jpg","67","","","TR","o","true","o","","","","","","","","","","",""
"image-keyboard-response","136","522873","0.0-2.0-11.0-0.34","1725.5","","","stimuli/Set_1_rs/171a.jpg","77","","","TF","n","true","n","","","","","","","","","","",""
"image-keyboard-response","137","527376","0.0-2.0-11.0-0.35","1238.5","","","stimuli/Set_1_rs/021a.jpg","67","","","TR","o","true","o","","","","","","","","","","",""
"image-keyboard-response","138","531879","0.0-2.0-11.0-0.36","1743.1999998092651","","","stimuli/Set_1_rs/157a.jpg","67","","","TR","o","true","o","","","","","","","","","","",""
"image-keyboard-response","139","536381","0.0-2.0-11.0-0.37","1720.7000000476837","","","stimuli/Set_1_rs/059b.jpg","66","","","TL","s","true","s","","","","","","","","","","",""
"image-keyboard-response","140","540885","0.0-2.0-11.0-0.38","1921.8999998569489","","","stimuli/Set_1_rs/153a.jpg","66","","","TR","o","false","s","","","","","","","","","","",""
"image-keyboard-response","141","545388","0.0-2.0-11.0-0.39","1066.2000000476837","","","stimuli/Set_1_rs/002a.jpg","77","","","TF","n","true","n","","","","","","","","","","",""
"image-keyboard-response","142","549891","0.0-2.0-11.0-0.40","1810.9000000953674","","","stimuli/Set_1_rs/041a.jpg","77","","","TF","n","true","n","","","","","","","","","","",""
"image-keyboard-response","143","554394","0.0-2.0-11.0-0.41","1548.4000000953674","","","stimuli/Set_1_rs/012b.jpg","66","","","TL","s","true","s","","","","","","","","","","",""
"image-keyboard-response","144","558898","0.0-2.0-11.0-0.42","1348.7000000476837","","","stimuli/Set_1_rs/083b.jpg","67","","","TL","s","false","o","","","","","","","","","","",""
"image-keyboard-response","145","563401","0.0-2.0-11.0-0.43","1357.3000001907349","","","stimuli/Set_1_rs/051a.jpg","77","","","TF","n","true","n","","","","","","","","","","",""
"image-keyboard-response","146","567903","0.0-2.0-11.0-0.44","1958.2000000476837","","","stimuli/Set_1_rs/168a.jpg","77","","","TF","n","true","n","","","","","","","","","","",""
"image-keyboard-response","147","572406","0.0-2.0-11.0-0.45","1647.8000001907349","","","stimuli/Set_1_rs/155b.jpg","67","","","TL","s","false","o","","","","","","","","","","",""
"image-keyboard-response","148","576909","0.0-2.0-11.0-0.46","1881.2000000476837","","","stimuli/Set_1_rs/045b.jpg","67","","","TL","s","false","o","","","","","","","","","","",""
"image-keyboard-response","149","581412","0.0-2.0-11.0-0.47","1522.2999999523163","","","stimuli/Set_1_rs/031b.jpg","66","","","TL","s","true","s","","","","","","","","","","",""
"image-keyboard-response","150","585915","0.0-2.0-11.0-0.48","1755.2000000476837","","","stimuli/Set_1_rs/136a.jpg","67","","","TR","o","true","o","","","","","","","","","","",""
"image-keyboard-response","151","590418","0.0-2.0-11.0-0.49","1828.1000001430511","","","stimuli/Set_1_rs/053a.jpg","77","","","TF","n","true","n","","","","","","","","","","",""
"image-keyboard-response","152","594921","0.0-2.0-11.0-0.50","1293","","","stimuli/Set_1_rs/061b.jpg","77","","","TL","s","false","n","","","","","","","","","","",""
"image-keyboard-response","153","599424","0.0-2.0-11.0-0.51","1110.1999998092651","","","stimuli/Set_1_rs/062a.jpg","77","","","TF","n","true","n","","","","","","","","","","",""
"image-keyboard-response","154","603927","0.0-2.0-11.0-0.52","1279.2999999523163","","","stimuli/Set_1_rs/009a.jpg","67","","","TR","o","true","o","","","","","","","","","","",""
"image-keyboard-response","155","608430","0.0-2.0-11.0-0.53","1767.6000001430511","","","stimuli/Set_1_rs/099b.jpg","67","","","TL","s","false","o","","","","","","","","","","",""
"image-keyboard-response","156","612933","0.0-2.0-11.0-0.54","1040.9000000953674","","","stimuli/Set_1_rs/030a.jpg","67","","","TR","o","true","o","","","","","","","","","","",""
"image-keyboard-response","157","617436","0.0-2.0-11.0-0.55","1369.5999999046326","","","stimuli/Set_1_rs/029a.jpg","67","","","TR","o","true","o","","","","","","","","","","",""
"image-keyboard-response","158","621939","0.0-2.0-11.0-0.56","1458.6000001430511","","","stimuli/Set_1_rs/140b.jpg","67","","","TL","s","false","o","","","","","","","","","","",""
"image-keyboard-response","159","626442","0.0-2.0-11.0-0.57","1115.5","","","stimuli/Set_1_rs/182a.jpg","77","","","TF","n","true","n","","","","","","","","","","",""
"image-keyboard-response","160","630946","0.0-2.0-11.0-0.58","1716.4000000953674","","","stimuli/Set_1_rs/151a.jpg","66","","","TF","n","false","s","","","","","","","","","","",""
"image-keyboard-response","161","635449","0.0-2.0-11.0-0.59","1836.2999999523163","","","stimuli/Set_1_rs/142a.jpg","67","","","TR","o","true","o","","","","","","","","","","",""
"image-keyboard-response","162","639952","0.0-2.0-11.0-0.60","1621.6000001430511","","","stimuli/Set_1_rs/070a.jpg","67","","","TR","o","true","o","","","","","","","","","","",""
"image-keyboard-response","163","644455","0.0-2.0-11.0-0.61","1038.8000001907349","","","stimuli/Set_1_rs/121a.jpg","77","","","TF","n","true","n","","","","","","","","","","",""
"image-keyboard-response","164","648958","0.0-2.0-11.0-0.62","2167.2999999523163","","","stimuli/Set_1_rs/008b.jpg","77","","","TL","s","false","n","","","","","","","","","","",""
"image-keyboard-response","165","653460","0.0-2.0-11.0-0.63","1360.7999999523163","","","stimuli/Set_1_rs/092b.jpg","67","","","TL","s","false","o","","","","","","","","","","",""
"image-keyboard-response","166","657963","0.0-2.0-11.0-0.64","1050.2999999523163","","","stimuli/Set_1_rs/192a.jpg","67","","","TR","o","true","o","","","","","","","","","","",""
"image-keyboard-response","167","662467","0.0-2.0-11.0-0.65","1267.2000000476837","","","stimuli/Set_1_rs/147a.jpg","67","","","TR","o","true","o","","","","","","","","","","",""
"image-keyboard-response","168","666969","0.0-2.0-11.0-0.66","971.4000000953674","","","stimuli/Set_1_rs/032a.jpg","67","","","TF","n","false","o","","","","","","","","","","",""
"image-keyboard-response","169","671472","0.0-2.0-11.0-0.67","1204.7999999523163","","","stimuli/Set_1_rs/128b.jpg","77","","","TL","s","false","n","","","","","","","","","","",""
"image-keyboard-response","170","675976","0.0-2.0-11.0-0.68","1310.0999999046326","","","stimuli/Set_1_rs/186a.jpg","77","","","TF","n","true","n","","","","","","","","","","",""
"image-keyboard-response","171","680479","0.0-2.0-11.0-0.69","1558","","","stimuli/Set_1_rs/109a.jpg","77","","","TR","o","false","n","","","","","","","","","","",""
"image-keyboard-response","172","684982","0.0-2.0-11.0-0.70","991","","","stimuli/Set_1_rs/160a.jpg","77","","","TF","n","true","n","","","","","","","","","","",""
"image-keyboard-response","173","689486","0.0-2.0-11.0-0.71","1511.4000000953674","","","stimuli/Set_1_rs/086a.jpg","67","","","TR","o","true","o","","","","","","","","","","",""
"image-keyboard-response","174","693989","0.0-2.0-11.0-0.72","1008.0999999046326","","","stimuli/Set_1_rs/023b.jpg","77","","","TL","s","false","n","","","","","","","","","","",""
"image-keyboard-response","175","698492","0.0-2.0-11.0-0.73","1384.8999998569489","","","stimuli/Set_1_rs/114b.jpg","77","","","TL","s","false","n","","","","","","","","","","",""
"image-keyboard-response","176","702996","0.0-2.0-11.0-0.74","977.9000000953674","","","stimuli/Set_1_rs/033b.jpg","77","","","TL","s","false","n","","","","","","","","","","",""
"image-keyboard-response","177","707499","0.0-2.0-11.0-0.75","1258","","","stimuli/Set_1_rs/010a.jpg","67","","","TR","o","true","o","","","","","","","","","","",""
"image-keyboard-response","178","712002","0.0-2.0-11.0-0.76","1603.0999999046326","","","stimuli/Set_1_rs/150a.jpg","77","","","TR","o","false","n","","","","","","","","","","",""
"image-keyboard-response","179","716505","0.0-2.0-11.0-0.77","1339.6999998092651","","","stimuli/Set_1_rs/038a.jpg","77","","","TR","o","false","n","","","","","","","","","","",""
"image-keyboard-response","180","721009","0.0-2.0-11.0-0.78","980.2999999523163","","","stimuli/Set_1_rs/022b.jpg","77","","","TL","s","false","n","","","","","","","","","","",""
"image-keyboard-response","181","725512","0.0-2.0-11.0-0.79","861.0999999046326","","","stimuli/Set_1_rs/018a.jpg","77","","","TF","n","true","n","","","","","","","","","","",""
"image-keyboard-response","182","730015","0.0-2.0-11.0-0.80","1750.3999998569489","","","stimuli/Set_1_rs/081a.jpg","77","","","TF","n","true","n","","","","","","","","","","",""
"image-keyboard-response","183","734518","0.0-2.0-11.0-0.81","1311.2999999523163","","","stimuli/Set_1_rs/107a.jpg","67","","","TR","o","true","o","","","","","","","","","","",""
"image-keyboard-response","184","739021","0.0-2.0-11.0-0.82","1544","","","stimuli/Set_1_rs/101b.jpg","67","","","TL","s","false","o","","","","","","","","","","",""
"image-keyboard-response","185","743524","0.0-2.0-11.0-0.83","1856.7000000476837","","","stimuli/Set_1_rs/178b.jpg","67","","","TL","s","false","o","","","","","","","","","","",""
"image-keyboard-response","186","748026","0.0-2.0-11.0-0.84","1817.9000000953674","","","stimuli/Set_1_rs/103b.jpg","67","","","TL","s","false","o","","","","","","","","","","",""
"image-keyboard-response","187","752529","0.0-2.0-11.0-0.85","1843.4000000953674","","","stimuli/Set_1_rs/116b.jpg","66","","","TL","s","true","s","","","","","","","","","","",""
"image-keyboard-response","188","757031","0.0-2.0-11.0-0.86","1596.3999998569489","","","stimuli/Set_1_rs/122a.jpg","77","","","TF","n","true","n","","","","","","","","","","",""
"image-keyboard-response","189","761534","0.0-2.0-11.0-0.87","1702","","","stimuli/Set_1_rs/044a.jpg","67","","","TR","o","true","o","","","","","","","","","","",""
"image-keyboard-response","190","766037","0.0-2.0-11.0-0.88","1999.1000001430511","","","stimuli/Set_1_rs/049a.jpg","66","","","TR","o","false","s","","","","","","","","","","",""
"image-keyboard-response","191","770540","0.0-2.0-11.0-0.89","1560","","","stimuli/Set_1_rs/118a.jpg","66","","","TR","o","false","s","","","","","","","","","","",""
"image-keyboard-response","192","775043","0.0-2.0-11.0-0.90","1521.0999999046326","","","stimuli/Set_1_rs/040a.jpg","67","","","TR","o","true","o","","","","","","","","","","",""
"image-keyboard-response","193","779546","0.0-2.0-11.0-0.91","1530","","","stimuli/Set_1_rs/011b.jpg","66","","","TL","s","true","s","","","","","","","","","","",""
"image-keyboard-response","194","784049","0.0-2.0-11.0-0.92","1026.7999999523163","","","stimuli/Set_1_rs/087a.jpg","77","","","TF","n","true","n","","","","","","","","","","",""
"image-keyboard-response","195","788552","0.0-2.0-11.0-0.93","1420","","","stimuli/Set_1_rs/063a.jpg","67","","","TR","o","true","o","","","","","","","","","","",""
"image-keyboard-response","196","793055","0.0-2.0-11.0-0.94","1972.8999998569489","","","stimuli/Set_1_rs/098b.jpg","67","","","TL","s","false","o","","","","","","","","","","",""
"image-keyboard-response","197","797558","0.0-2.0-11.0-0.95","1309.7000000476837","","","stimuli/Set_1_rs/058a.jpg","67","","","TR","o","true","o","","","","","","","","","","",""
"html-keyboard-response","198","811983","0.0-3.0","14423.5","","","<p>Vége a feladatnak. Köszönjük a részvételt!</p>","13","","","","","","","25","3","6","19","7","8","4","5","25","0.6176470588235294","0.05882352941176469"
