"trial_type","trial_index","time_elapsed","internal_node_id","rt","responses","success","stimulus","key_press","cond","enc_response","condition","correct_response","correct","rec_response","targ_old","targ_sim","targ_new","lure_old","lure_sim","lure_new","foil_old","foil_sim","foil_new","recognition_ratio","ldi"
"pavlovia","0","8","0.0-0.0","","","","","","","","","","","","","","","","","","","","","",""
"survey-multi-choice","1","4392","0.0-1.0","4379.299999713898","{""Q0"":""Igen"",""Q1"":""Igen""}","","","","","","","","","","","","","","","","","","","",""
"survey-text","2","26067","0.0-2.0-0.0","21668.900000095367","{""Q0"":""449122""}","","","","","","","","","","","","","","","","","","","",""
"fullscreen","3","29877","0.0-2.0-1.0","","","true","","","","","","","","","","","","","","","","","","",""
"html-keyboard-response","4","38226","0.0-2.0-2.0","8346.700000286102","","","<p>Üdvözöljük! Ez a feladat két részből áll, és összesen 10-15 percet vesz igénybe.</p>","32","","","","","","","","","","","","","","","","",""
"html-keyboard-response","5","62273","0.0-2.0-3.0-0.0","24045.400000095367","","","<p>Az első részben tárgyakat lát majd a képernyőn, egymás után fognak megjelenni.<br>Az Ön feladata eldönteni, hogy a tárgyak <i>beltéri vagy kültéri</i> tárgyak-e.</p>						   <p>Amennyiben a tárgyat általában beltéren látja, nyomja le a <b>C</b> billentyűt. Amennyiben a tárgyat általában kültéren látja, nyomja le az <b>M</b> billentyűt.</p>						   <p>Ebben a feladatban nincsen mindig egyértelműen jó megoldás. Válaszoljon legjobb tudása szerint. A válaszadásra 2 másodperce lesz.","32","","","","","","","","","","","","","","","","",""
"html-keyboard-response","6","64276","0.0-2.0-3.0-1.0","null","","","<p>Kezdődik a gyakorlás...</p>","null","","","","","","","","","","","","","","","","",""
"image-keyboard-response","7","66281","0.0-2.0-4.0-0.0","1369","","","stimuli/Set_2_rs/165b.jpg","77","-","outdoor","","","","","","","","","","","","","","",""
"html-keyboard-response","8","70337","0.0-2.0-4.0-1.0","3552.4000000953674","","","<p>Az Ön válasza:</p><p>Kültéri.</p>","32","","","","","","","","","","","","","","","","",""
"image-keyboard-response","9","72341","0.0-2.0-4.0-0.1","1101","","","stimuli/Set_2_rs/034a.jpg","67","-","indoor","","","","","","","","","","","","","","",""
"html-keyboard-response","10","73729","0.0-2.0-4.0-1.1","886.0999999046326","","","<p>Az Ön válasza:</p><p>Beltéri.</p>","32","","","","","","","","","","","","","","","","",""
"image-keyboard-response","11","75732","0.0-2.0-4.0-0.2","1117.3000001907349","","","stimuli/Set_2_rs/049a.jpg","77","SL","outdoor","","","","","","","","","","","","","","",""
"html-keyboard-response","12","76864","0.0-2.0-4.0-1.2","630.4000000953674","","","<p>Az Ön válasza:</p><p>Kültéri.</p>","32","","","","","","","","","","","","","","","","",""
"image-keyboard-response","13","78868","0.0-2.0-4.0-0.3","974.1999998092651","","","stimuli/Set_2_rs/028a.jpg","67","SR","indoor","","","","","","","","","","","","","","",""
"html-keyboard-response","14","80064","0.0-2.0-4.0-1.3","694.3000001907349","","","<p>Az Ön válasza:</p><p>Beltéri.</p>","32","","","","","","","","","","","","","","","","",""
"image-keyboard-response","15","82068","0.0-2.0-4.0-0.4","909.7000002861023","","","stimuli/Set_2_rs/135a.jpg","67","SL","indoor","","","","","","","","","","","","","","",""
"html-keyboard-response","16","82976","0.0-2.0-4.0-1.4","406.09999990463257","","","<p>Az Ön válasza:</p><p>Beltéri.</p>","32","","","","","","","","","","","","","","","","",""
"image-keyboard-response","17","84980","0.0-2.0-4.0-0.5","1278.1999998092651","","","stimuli/Set_2_rs/137a.jpg","67","SR","indoor","","","","","","","","","","","","","","",""
"html-keyboard-response","18","86384","0.0-2.0-4.0-1.5","900.8999996185303","","","<p>Az Ön válasza:</p><p>Beltéri.</p>","32","","","","","","","","","","","","","","","","",""
"html-keyboard-response","19","96816","0.0-2.0-5.0-0.0","10431.199999809265","","","<p>Ez volt a gyakorlás. A feladat következik. A feladat alatt már nem kap visszajelzést.</p>","32","","","","","","","","","","","","","","","","",""
"html-keyboard-response","20","98819","0.0-2.0-5.0-1.0","null","","","<p>Kezdődik a feladat...</p>","null","","","","","","","","","","","","","","","","",""
"image-keyboard-response","21","101322","0.0-2.0-6.0-0.0","1066.6999998092651","","","stimuli/Set_1_rs/157a.jpg","67","","indoor","SR","","","","","","","","","","","","","",""
"image-keyboard-response","22","103824","0.0-2.0-6.0-0.1","1268.2000002861023","","","stimuli/Set_1_rs/009a.jpg","67","","indoor","SR","","","","","","","","","","","","","",""
"image-keyboard-response","23","106325","0.0-2.0-6.0-0.2","1342.7999997138977","","","stimuli/Set_1_rs/059a.jpg","77","","outdoor","SL","","","","","","","","","","","","","",""
"image-keyboard-response","24","108827","0.0-2.0-6.0-0.3","1241.2999997138977","","","stimuli/Set_1_rs/024a.jpg","77","","outdoor","SR","","","","","","","","","","","","","",""
"image-keyboard-response","25","111329","0.0-2.0-6.0-0.4","994.6999998092651","","","stimuli/Set_1_rs/101a.jpg","67","","indoor","SL","","","","","","","","","","","","","",""
"image-keyboard-response","26","113831","0.0-2.0-6.0-0.5","1100.7999997138977","","","stimuli/Set_1_rs/137a.jpg","77","","outdoor","SR","","","","","","","","","","","","","",""
"image-keyboard-response","27","116333","0.0-2.0-6.0-0.6","1111.1999998092651","","","stimuli/Set_1_rs/011a.jpg","67","","indoor","SL","","","","","","","","","","","","","",""
"image-keyboard-response","28","118834","0.0-2.0-6.0-0.7","1009.2999997138977","","","stimuli/Set_1_rs/128a.jpg","67","","indoor","SL","","","","","","","","","","","","","",""
"image-keyboard-response","29","121337","0.0-2.0-6.0-0.8","1147.2999997138977","","","stimuli/Set_1_rs/083a.jpg","67","","indoor","SL","","","","","","","","","","","","","",""
"image-keyboard-response","30","123838","0.0-2.0-6.0-0.9","1093.5","","","stimuli/Set_1_rs/136a.jpg","67","","indoor","SR","","","","","","","","","","","","","",""
"image-keyboard-response","31","126340","0.0-2.0-6.0-0.10","799.8000001907349","","","stimuli/Set_1_rs/103a.jpg","67","","indoor","SL","","","","","","","","","","","","","",""
"image-keyboard-response","32","128842","0.0-2.0-6.0-0.11","905.5","","","stimuli/Set_1_rs/086a.jpg","67","","indoor","SR","","","","","","","","","","","","","",""
"image-keyboard-response","33","131344","0.0-2.0-6.0-0.12","1171.0999999046326","","","stimuli/Set_1_rs/099a.jpg","77","","outdoor","SL","","","","","","","","","","","","","",""
"image-keyboard-response","34","133846","0.0-2.0-6.0-0.13","973.5","","","stimuli/Set_1_rs/178a.jpg","67","","indoor","SL","","","","","","","","","","","","","",""
"image-keyboard-response","35","136347","0.0-2.0-6.0-0.14","1336.0999999046326","","","stimuli/Set_1_rs/134a.jpg","67","","indoor","SL","","","","","","","","","","","","","",""
"image-keyboard-response","36","138849","0.0-2.0-6.0-0.15","1122.6000003814697","","","stimuli/Set_1_rs/156a.jpg","67","","indoor","SL","","","","","","","","","","","","","",""
"image-keyboard-response","37","141352","0.0-2.0-6.0-0.16","1244.6999998092651","","","stimuli/Set_1_rs/054a.jpg","77","","outdoor","SR","","","","","","","","","","","","","",""
"image-keyboard-response","38","143853","0.0-2.0-6.0-0.17","1414.2000002861023","","","stimuli/Set_1_rs/092a.jpg","67","","indoor","SL","","","","","","","","","","","","","",""
"image-keyboard-response","39","146354","0.0-2.0-6.0-0.18","1264.9000000953674","","","stimuli/Set_1_rs/031a.jpg","67","","indoor","SL","","","","","","","","","","","","","",""
"image-keyboard-response","40","148856","0.0-2.0-6.0-0.19","1115.2999997138977","","","stimuli/Set_1_rs/013a.jpg","67","","indoor","SL","","","","","","","","","","","","","",""
"image-keyboard-response","41","151359","0.0-2.0-6.0-0.20","868.5999999046326","","","stimuli/Set_1_rs/075a.jpg","67","","indoor","SL","","","","","","","","","","","","","",""
"image-keyboard-response","42","153860","0.0-2.0-6.0-0.21","1550.6999998092651","","","stimuli/Set_1_rs/150a.jpg","67","","indoor","SR","","","","","","","","","","","","","",""
"image-keyboard-response","43","156362","0.0-2.0-6.0-0.22","1033.1999998092651","","","stimuli/Set_1_rs/094a.jpg","67","","indoor","SL","","","","","","","","","","","","","",""
"image-keyboard-response","44","158864","0.0-2.0-6.0-0.23","1043.0999999046326","","","stimuli/Set_1_rs/090a.jpg","77","","outdoor","SL","","","","","","","","","","","","","",""
"image-keyboard-response","45","161366","0.0-2.0-6.0-0.24","1260.6999998092651","","","stimuli/Set_1_rs/192a.jpg","67","","indoor","SR","","","","","","","","","","","","","",""
"image-keyboard-response","46","163869","0.0-2.0-6.0-0.25","1207.4000000953674","","","stimuli/Set_1_rs/116a.jpg","67","","indoor","SL","","","","","","","","","","","","","",""
"image-keyboard-response","47","166370","0.0-2.0-6.0-0.26","912.5","","","stimuli/Set_1_rs/044a.jpg","67","","indoor","SR","","","","","","","","","","","","","",""
"image-keyboard-response","48","168872","0.0-2.0-6.0-0.27","1323.1999998092651","","","stimuli/Set_1_rs/114a.jpg","67","","indoor","SL","","","","","","","","","","","","","",""
"image-keyboard-response","49","171374","0.0-2.0-6.0-0.28","1493","","","stimuli/Set_1_rs/112a.jpg","77","","outdoor","SR","","","","","","","","","","","","","",""
"image-keyboard-response","50","173877","0.0-2.0-6.0-0.29","1679.1999998092651","","","stimuli/Set_1_rs/052a.jpg","77","","outdoor","SL","","","","","","","","","","","","","",""
"image-keyboard-response","51","176379","0.0-2.0-6.0-0.30","1224.5","","","stimuli/Set_1_rs/058a.jpg","67","","indoor","SR","","","","","","","","","","","","","",""
"image-keyboard-response","52","178881","0.0-2.0-6.0-0.31","1090.7000002861023","","","stimuli/Set_1_rs/023a.jpg","77","","outdoor","SL","","","","","","","","","","","","","",""
"image-keyboard-response","53","181383","0.0-2.0-6.0-0.32","988","","","stimuli/Set_1_rs/030a.jpg","77","","outdoor","SR","","","","","","","","","","","","","",""
"image-keyboard-response","54","183885","0.0-2.0-6.0-0.33","1094.3000001907349","","","stimuli/Set_1_rs/091a.jpg","67","","indoor","SR","","","","","","","","","","","","","",""
"image-keyboard-response","55","186386","0.0-2.0-6.0-0.34","1008.3000001907349","","","stimuli/Set_1_rs/147a.jpg","67","","indoor","SR","","","","","","","","","","","","","",""
"image-keyboard-response","56","188889","0.0-2.0-6.0-0.35","907","","","stimuli/Set_1_rs/063a.jpg","77","","outdoor","SR","","","","","","","","","","","","","",""
"image-keyboard-response","57","191391","0.0-2.0-6.0-0.36","771.6000003814697","","","stimuli/Set_1_rs/040a.jpg","77","","outdoor","SR","","","","","","","","","","","","","",""
"image-keyboard-response","58","193894","0.0-2.0-6.0-0.37","1005.8999996185303","","","stimuli/Set_1_rs/038a.jpg","67","","indoor","SR","","","","","","","","","","","","","",""
"image-keyboard-response","59","196396","0.0-2.0-6.0-0.38","1319.5","","","stimuli/Set_1_rs/100a.jpg","67","","indoor","SL","","","","","","","","","","","","","",""
"image-keyboard-response","60","198898","0.0-2.0-6.0-0.39","1009.1000003814697","","","stimuli/Set_1_rs/109a.jpg","67","","indoor","SR","","","","","","","","","","","","","",""
"image-keyboard-response","61","201401","0.0-2.0-6.0-0.40","1098.4000000953674","","","stimuli/Set_1_rs/191a.jpg","67","","indoor","SR","","","","","","","","","","","","","",""
"image-keyboard-response","62","203903","0.0-2.0-6.0-0.41","1315.6999998092651","","","stimuli/Set_1_rs/061a.jpg","67","","indoor","SL","","","","","","","","","","","","","",""
"image-keyboard-response","63","206405","0.0-2.0-6.0-0.42","1006.3000001907349","","","stimuli/Set_1_rs/162a.jpg","67","","indoor","SR","","","","","","","","","","","","","",""
"image-keyboard-response","64","208908","0.0-2.0-6.0-0.43","1048.3999996185303","","","stimuli/Set_1_rs/046a.jpg","77","","outdoor","SR","","","","","","","","","","","","","",""
"image-keyboard-response","65","211410","0.0-2.0-6.0-0.44","784.6999998092651","","","stimuli/Set_1_rs/155a.jpg","77","","outdoor","SL","","","","","","","","","","","","","",""
"image-keyboard-response","66","213912","0.0-2.0-6.0-0.45","1178.7000002861023","","","stimuli/Set_1_rs/010a.jpg","67","","indoor","SR","","","","","","","","","","","","","",""
"image-keyboard-response","67","216413","0.0-2.0-6.0-0.46","1205.1999998092651","","","stimuli/Set_1_rs/142a.jpg","67","","indoor","SR","","","","","","","","","","","","","",""
"image-keyboard-response","68","218915","0.0-2.0-6.0-0.47","1151.5999999046326","","","stimuli/Set_1_rs/045a.jpg","67","","indoor","SL","","","","","","","","","","","","","",""
"image-keyboard-response","69","221418","0.0-2.0-6.0-0.48","1305.5","","","stimuli/Set_1_rs/070a.jpg","67","","indoor","SR","","","","","","","","","","","","","",""
"image-keyboard-response","70","223920","0.0-2.0-6.0-0.49","931","","","stimuli/Set_1_rs/022a.jpg","67","","indoor","SL","","","","","","","","","","","","","",""
"image-keyboard-response","71","226421","0.0-2.0-6.0-0.50","957.3000001907349","","","stimuli/Set_1_rs/021a.jpg","77","","outdoor","SR","","","","","","","","","","","","","",""
"image-keyboard-response","72","228924","0.0-2.0-6.0-0.51","999.5","","","stimuli/Set_1_rs/098a.jpg","67","","indoor","SL","","","","","","","","","","","","","",""
"image-keyboard-response","73","231426","0.0-2.0-6.0-0.52","911.9000000953674","","","stimuli/Set_1_rs/008a.jpg","67","","indoor","SL","","","","","","","","","","","","","",""
"image-keyboard-response","74","233928","0.0-2.0-6.0-0.53","826.1999998092651","","","stimuli/Set_1_rs/012a.jpg","67","","indoor","SL","","","","","","","","","","","","","",""
"image-keyboard-response","75","236430","0.0-2.0-6.0-0.54","900.8999996185303","","","stimuli/Set_1_rs/153a.jpg","67","","indoor","SR","","","","","","","","","","","","","",""
"image-keyboard-response","76","238932","0.0-2.0-6.0-0.55","1086.7999997138977","","","stimuli/Set_1_rs/068a.jpg","67","","indoor","SL","","","","","","","","","","","","","",""
"image-keyboard-response","77","241434","0.0-2.0-6.0-0.56","1224.1000003814697","","","stimuli/Set_1_rs/140a.jpg","67","","indoor","SL","","","","","","","","","","","","","",""
"image-keyboard-response","78","243936","0.0-2.0-6.0-0.57","882.2999997138977","","","stimuli/Set_1_rs/029a.jpg","67","","indoor","SR","","","","","","","","","","","","","",""
"image-keyboard-response","79","246437","0.0-2.0-6.0-0.58","684.9000000953674","","","stimuli/Set_1_rs/049a.jpg","77","","outdoor","SR","","","","","","","","","","","","","",""
"image-keyboard-response","80","248940","0.0-2.0-6.0-0.59","903.2999997138977","","","stimuli/Set_1_rs/180a.jpg","67","","indoor","SR","","","","","","","","","","","","","",""
"image-keyboard-response","81","251442","0.0-2.0-6.0-0.60","800.1999998092651","","","stimuli/Set_1_rs/033a.jpg","67","","indoor","SL","","","","","","","","","","","","","",""
"image-keyboard-response","82","253944","0.0-2.0-6.0-0.61","1114.4000000953674","","","stimuli/Set_1_rs/119a.jpg","67","","indoor","SL","","","","","","","","","","","","","",""
"image-keyboard-response","83","256446","0.0-2.0-6.0-0.62","868.5","","","stimuli/Set_1_rs/118a.jpg","77","","outdoor","SR","","","","","","","","","","","","","",""
"image-keyboard-response","84","258948","0.0-2.0-6.0-0.63","1566.0999999046326","","","stimuli/Set_1_rs/107a.jpg","77","","outdoor","SR","","","","","","","","","","","","","",""
"html-keyboard-response","85","285262","0.0-2.0-7.0","26313.099999904633","","","<p>Vége a feladat első részének. Tartson egy pár perces szünetet.</p>","32","","","","","","","","","","","","","","","","",""
"html-keyboard-response","86","322909","0.0-2.0-8.0-0.0","37646.40000009537","","","<p>A következőkben ismét tárgyak jelennek majd meg a képernyőn, egymás után.<br>Az Ön feladata eldönteni, látta-e már ezeket a tárgyakat a vizsgálat első felében.</p>		        			<p>Amennyiben pontosan ugyanezt a tárgyat látta (a tárgy <i>régi</i>), nyomja le a <b>C</b> billentyűt.</p>		        			<p>Amennyiben hasonló tárgyat látott (a tárgy <i>hasonló</i>), nyomja le a <b>B</b> billentyűt.</p>		        			<p>Amennyiben nem látta ezt a tárgyat az első részben (a tárgy <i>új</i>), nyomja le az <b>M</b> billentyűt.</p>","32","","","","","","","","","","","","","","","","",""
"html-keyboard-response","87","324911","0.0-2.0-8.0-1.0","null","","","<p>Kezdődik a gyakorlás...</p>","null","","","","","","","","","","","","","","","","",""
"image-keyboard-response","88","328914","0.0-2.0-9.0-0.0","1995.5","","","stimuli/Set_2_rs/049b.jpg","67","","","TL","l","false","o","","","","","","","","","","",""
"html-keyboard-response","89","331597","0.0-2.0-9.0-1.0","2680.5999999046326","","","<p>A helyes válasz: Hasonló.</p><p>Az Ön válasza: Régi.</p>","32","","","","","","","","","","","","","","","","",""
"image-keyboard-response","90","335600","0.0-2.0-9.0-0.1","1518.1999998092651","","","stimuli/Set_2_rs/018b.jpg","77","","","TF","n","true","n","","","","","","","","","","",""
"html-keyboard-response","91","337356","0.0-2.0-9.0-1.1","1755.3000001907349","","","<p>A helyes válasz: Új.</p><p>Az Ön válasza: Új.</p>","32","","","","","","","","","","","","","","","","",""
"image-keyboard-response","92","341359","0.0-2.0-9.0-0.2","1693.8000001907349","","","stimuli/Set_2_rs/028a.jpg","67","","","TR","o","true","o","","","","","","","","","","",""
"html-keyboard-response","93","342780","0.0-2.0-9.0-1.2","1419.4000000953674","","","<p>A helyes válasz: Régi.</p><p>Az Ön válasza: Régi.</p>","32","","","","","","","","","","","","","","","","",""
"image-keyboard-response","94","346784","0.0-2.0-9.0-0.3","1262.4000000953674","","","stimuli/Set_2_rs/137a.jpg","67","","","TR","o","true","o","","","","","","","","","","",""
"html-keyboard-response","95","348092","0.0-2.0-9.0-1.3","1307.4000000953674","","","<p>A helyes válasz: Régi.</p><p>Az Ön válasza: Régi.</p>","32","","","","","","","","","","","","","","","","",""
"image-keyboard-response","96","352096","0.0-2.0-9.0-0.4","1501.9000000953674","","","stimuli/Set_2_rs/135b.jpg","77","","","TL","l","false","n","","","","","","","","","","",""
"html-keyboard-response","97","353948","0.0-2.0-9.0-1.4","1851.1999998092651","","","<p>A helyes válasz: Hasonló.</p><p>Az Ön válasza: Új.</p>","32","","","","","","","","","","","","","","","","",""
"image-keyboard-response","98","357952","0.0-2.0-9.0-0.5","1886.0999999046326","","","stimuli/Set_2_rs/019a.jpg","77","","","TF","n","true","n","","","","","","","","","","",""
"html-keyboard-response","99","362060","0.0-2.0-9.0-1.5","4107.200000286102","","","<p>A helyes válasz: Új.</p><p>Az Ön válasza: Új.</p>","32","","","","","","","","","","","","","","","","",""
"html-keyboard-response","100","369932","0.0-2.0-10.0-0.0","7871.200000286102","","","<p>Ez volt a gyakorlás. A feladat következik. A feladat alatt már nem kap visszajelzést.</p>","32","","","","","","","","","","","","","","","","",""
"html-keyboard-response","101","371934","0.0-2.0-10.0-1.0","null","","","<p>Kezdődik a feladat...</p>","null","","","","","","","","","","","","","","","","",""
"image-keyboard-response","102","376438","0.0-2.0-11.0-0.0","1835.4000000953674","","","stimuli/Set_1_rs/181a.jpg","77","","","TF","n","true","n","","","","","","","","","","",""
"image-keyboard-response","103","380940","0.0-2.0-11.0-0.1","1363.9000000953674","","","stimuli/Set_1_rs/152a.jpg","77","","","TF","n","true","n","","","","","","","","","","",""
"image-keyboard-response","104","385444","0.0-2.0-11.0-0.2","1757.5","","","stimuli/Set_1_rs/090b.jpg","66","","","TL","s","true","s","","","","","","","","","","",""
"image-keyboard-response","105","389946","0.0-2.0-11.0-0.3","1622.2999997138977","","","stimuli/Set_1_rs/126a.jpg","77","","","TF","n","true","n","","","","","","","","","","",""
"image-keyboard-response","106","394449","0.0-2.0-11.0-0.4","1887.8000001907349","","","stimuli/Set_1_rs/068b.jpg","66","","","TL","s","true","s","","","","","","","","","","",""
"image-keyboard-response","107","398951","0.0-2.0-11.0-0.5","1289.6999998092651","","","stimuli/Set_1_rs/054a.jpg","67","","","TR","o","true","o","","","","","","","","","","",""
"image-keyboard-response","108","403454","0.0-2.0-11.0-0.6","1267","","","stimuli/Set_1_rs/162a.jpg","67","","","TR","o","true","o","","","","","","","","","","",""
"image-keyboard-response","109","407957","0.0-2.0-11.0-0.7","2091.6000003814697","","","stimuli/Set_1_rs/019a.jpg","66","","","TF","n","false","s","","","","","","","","","","",""
"image-keyboard-response","110","412460","0.0-2.0-11.0-0.8","1140.6000003814697","","","stimuli/Set_1_rs/119b.jpg","67","","","TL","s","false","o","","","","","","","","","","",""
"image-keyboard-response","111","416963","0.0-2.0-11.0-0.9","1101.7000002861023","","","stimuli/Set_1_rs/052b.jpg","77","","","TL","s","false","n","","","","","","","","","","",""
"image-keyboard-response","112","421466","0.0-2.0-11.0-0.10","1318.8999996185303","","","stimuli/Set_1_rs/135a.jpg","77","","","TF","n","true","n","","","","","","","","","","",""
"image-keyboard-response","113","425970","0.0-2.0-11.0-0.11","1247.5","","","stimuli/Set_1_rs/004a.jpg","77","","","TF","n","true","n","","","","","","","","","","",""
"image-keyboard-response","114","430473","0.0-2.0-11.0-0.12","1303.6999998092651","","","stimuli/Set_1_rs/072a.jpg","77","","","TF","n","true","n","","","","","","","","","","",""
"image-keyboard-response","115","434977","0.0-2.0-11.0-0.13","2096.4000000953674","","","stimuli/Set_1_rs/028a.jpg","77","","","TF","n","true","n","","","","","","","","","","",""
"image-keyboard-response","116","439480","0.0-2.0-11.0-0.14","1528.5999999046326","","","stimuli/Set_1_rs/091a.jpg","67","","","TR","o","true","o","","","","","","","","","","",""
"image-keyboard-response","117","443983","0.0-2.0-11.0-0.15","1969","","","stimuli/Set_1_rs/108a.jpg","77","","","TF","n","true","n","","","","","","","","","","",""
"image-keyboard-response","118","448486","0.0-2.0-11.0-0.16","2266.0999999046326","","","stimuli/Set_1_rs/146a.jpg","66","","","TF","n","false","s","","","","","","","","","","",""
"image-keyboard-response","119","452990","0.0-2.0-11.0-0.17","1346.9000000953674","","","stimuli/Set_1_rs/013b.jpg","67","","","TL","s","false","o","","","","","","","","","","",""
"image-keyboard-response","120","457493","0.0-2.0-11.0-0.18","1323.1999998092651","","","stimuli/Set_1_rs/141a.jpg","77","","","TF","n","true","n","","","","","","","","","","",""
"image-keyboard-response","121","461997","0.0-2.0-11.0-0.19","963.5","","","stimuli/Set_1_rs/156b.jpg","67","","","TL","s","false","o","","","","","","","","","","",""
"image-keyboard-response","122","466500","0.0-2.0-11.0-0.20","1708.7000002861023","","","stimuli/Set_1_rs/024a.jpg","67","","","TR","o","true","o","","","","","","","","","","",""
"image-keyboard-response","123","471004","0.0-2.0-11.0-0.21","1252.6999998092651","","","stimuli/Set_1_rs/046a.jpg","67","","","TR","o","true","o","","","","","","","","","","",""
"image-keyboard-response","124","475507","0.0-2.0-11.0-0.22","2189.4000000953674","","","stimuli/Set_1_rs/100b.jpg","66","","","TL","s","true","s","","","","","","","","","","",""
"image-keyboard-response","125","480010","0.0-2.0-11.0-0.23","1286.2999997138977","","","stimuli/Set_1_rs/080a.jpg","77","","","TF","n","true","n","","","","","","","","","","",""
"image-keyboard-response","126","484512","0.0-2.0-11.0-0.24","1135.3000001907349","","","stimuli/Set_1_rs/094b.jpg","67","","","TL","s","false","o","","","","","","","","","","",""
"image-keyboard-response","127","489015","0.0-2.0-11.0-0.25","1416.9000000953674","","","stimuli/Set_1_rs/190a.jpg","66","","","TF","n","false","s","","","","","","","","","","",""
"image-keyboard-response","128","493518","0.0-2.0-11.0-0.26","1202.1999998092651","","","stimuli/Set_1_rs/137a.jpg","67","","","TR","o","true","o","","","","","","","","","","",""
"image-keyboard-response","129","498021","0.0-2.0-11.0-0.27","1355","","","stimuli/Set_1_rs/180a.jpg","67","","","TR","o","true","o","","","","","","","","","","",""
"image-keyboard-response","130","502524","0.0-2.0-11.0-0.28","1123.8000001907349","","","stimuli/Set_1_rs/134b.jpg","67","","","TL","s","false","o","","","","","","","","","","",""
"image-keyboard-response","131","507027","0.0-2.0-11.0-0.29","1325","","","stimuli/Set_1_rs/088a.jpg","77","","","TF","n","true","n","","","","","","","","","","",""
"image-keyboard-response","132","511529","0.0-2.0-11.0-0.30","981.7999997138977","","","stimuli/Set_1_rs/165a.jpg","77","","","TF","n","true","n","","","","","","","","","","",""
"image-keyboard-response","133","516033","0.0-2.0-11.0-0.31","1406.5","","","stimuli/Set_1_rs/075b.jpg","66","","","TL","s","true","s","","","","","","","","","","",""
"image-keyboard-response","134","520537","0.0-2.0-11.0-0.32","1222.5999999046326","","","stimuli/Set_1_rs/191a.jpg","67","","","TR","o","true","o","","","","","","","","","","",""
"image-keyboard-response","135","525040","0.0-2.0-11.0-0.33","1039","","","stimuli/Set_1_rs/112a.jpg","67","","","TR","o","true","o","","","","","","","","","","",""
"image-keyboard-response","136","529542","0.0-2.0-11.0-0.34","1271.5","","","stimuli/Set_1_rs/171a.jpg","77","","","TF","n","true","n","","","","","","","","","","",""
"image-keyboard-response","137","534046","0.0-2.0-11.0-0.35","1249","","","stimuli/Set_1_rs/021a.jpg","67","","","TR","o","true","o","","","","","","","","","","",""
"image-keyboard-response","138","538549","0.0-2.0-11.0-0.36","1225.4000000953674","","","stimuli/Set_1_rs/157a.jpg","67","","","TR","o","true","o","","","","","","","","","","",""
"image-keyboard-response","139","543052","0.0-2.0-11.0-0.37","1634.8000001907349","","","stimuli/Set_1_rs/059b.jpg","66","","","TL","s","true","s","","","","","","","","","","",""
"image-keyboard-response","140","547555","0.0-2.0-11.0-0.38","1403.5999999046326","","","stimuli/Set_1_rs/153a.jpg","67","","","TR","o","true","o","","","","","","","","","","",""
"image-keyboard-response","141","552059","0.0-2.0-11.0-0.39","1571.7999997138977","","","stimuli/Set_1_rs/002a.jpg","77","","","TF","n","true","n","","","","","","","","","","",""
"image-keyboard-response","142","556562","0.0-2.0-11.0-0.40","1068.1999998092651","","","stimuli/Set_1_rs/041a.jpg","77","","","TF","n","true","n","","","","","","","","","","",""
"image-keyboard-response","143","561064","0.0-2.0-11.0-0.41","2261.8999996185303","","","stimuli/Set_1_rs/012b.jpg","66","","","TL","s","true","s","","","","","","","","","","",""
"image-keyboard-response","144","565567","0.0-2.0-11.0-0.42","894.9000000953674","","","stimuli/Set_1_rs/083b.jpg","67","","","TL","s","false","o","","","","","","","","","","",""
"image-keyboard-response","145","570071","0.0-2.0-11.0-0.43","1127.9000000953674","","","stimuli/Set_1_rs/051a.jpg","77","","","TF","n","true","n","","","","","","","","","","",""
"image-keyboard-response","146","574575","0.0-2.0-11.0-0.44","1152.4000000953674","","","stimuli/Set_1_rs/168a.jpg","77","","","TF","n","true","n","","","","","","","","","","",""
"image-keyboard-response","147","579078","0.0-2.0-11.0-0.45","1672.7000002861023","","","stimuli/Set_1_rs/155b.jpg","66","","","TL","s","true","s","","","","","","","","","","",""
"image-keyboard-response","148","583582","0.0-2.0-11.0-0.46","1409.2000002861023","","","stimuli/Set_1_rs/045b.jpg","67","","","TL","s","false","o","","","","","","","","","","",""
"image-keyboard-response","149","588085","0.0-2.0-11.0-0.47","1449.8000001907349","","","stimuli/Set_1_rs/031b.jpg","66","","","TL","s","true","s","","","","","","","","","","",""
"image-keyboard-response","150","592587","0.0-2.0-11.0-0.48","1218.7999997138977","","","stimuli/Set_1_rs/136a.jpg","67","","","TR","o","true","o","","","","","","","","","","",""
"image-keyboard-response","151","597090","0.0-2.0-11.0-0.49","1180.3999996185303","","","stimuli/Set_1_rs/053a.jpg","77","","","TF","n","true","n","","","","","","","","","","",""
"image-keyboard-response","152","601593","0.0-2.0-11.0-0.50","1333.2999997138977","","","stimuli/Set_1_rs/061b.jpg","66","","","TL","s","true","s","","","","","","","","","","",""
"image-keyboard-response","153","606096","0.0-2.0-11.0-0.51","1326.5999999046326","","","stimuli/Set_1_rs/062a.jpg","77","","","TF","n","true","n","","","","","","","","","","",""
"image-keyboard-response","154","610598","0.0-2.0-11.0-0.52","1047.7000002861023","","","stimuli/Set_1_rs/009a.jpg","67","","","TR","o","true","o","","","","","","","","","","",""
"image-keyboard-response","155","615101","0.0-2.0-11.0-0.53","1537.0999999046326","","","stimuli/Set_1_rs/099b.jpg","66","","","TL","s","true","s","","","","","","","","","","",""
"image-keyboard-response","156","619605","0.0-2.0-11.0-0.54","1641.8000001907349","","","stimuli/Set_1_rs/030a.jpg","67","","","TR","o","true","o","","","","","","","","","","",""
"image-keyboard-response","157","624108","0.0-2.0-11.0-0.55","994.5","","","stimuli/Set_1_rs/029a.jpg","67","","","TR","o","true","o","","","","","","","","","","",""
"image-keyboard-response","158","628611","0.0-2.0-11.0-0.56","2043.2000002861023","","","stimuli/Set_1_rs/140b.jpg","66","","","TL","s","true","s","","","","","","","","","","",""
"image-keyboard-response","159","633114","0.0-2.0-11.0-0.57","1012.4000000953674","","","stimuli/Set_1_rs/182a.jpg","77","","","TF","n","true","n","","","","","","","","","","",""
"image-keyboard-response","160","637617","0.0-2.0-11.0-0.58","2108.9000000953674","","","stimuli/Set_1_rs/151a.jpg","77","","","TF","n","true","n","","","","","","","","","","",""
"image-keyboard-response","161","642120","0.0-2.0-11.0-0.59","1637.9000000953674","","","stimuli/Set_1_rs/142a.jpg","66","","","TR","o","false","s","","","","","","","","","","",""
"image-keyboard-response","162","646623","0.0-2.0-11.0-0.60","1230.2999997138977","","","stimuli/Set_1_rs/070a.jpg","67","","","TR","o","true","o","","","","","","","","","","",""
"image-keyboard-response","163","651126","0.0-2.0-11.0-0.61","1063.4000000953674","","","stimuli/Set_1_rs/121a.jpg","77","","","TF","n","true","n","","","","","","","","","","",""
"image-keyboard-response","164","655629","0.0-2.0-11.0-0.62","1504.2999997138977","","","stimuli/Set_1_rs/008b.jpg","66","","","TL","s","true","s","","","","","","","","","","",""
"image-keyboard-response","165","660132","0.0-2.0-11.0-0.63","1769.1999998092651","","","stimuli/Set_1_rs/092b.jpg","77","","","TL","s","false","n","","","","","","","","","","",""
"image-keyboard-response","166","664635","0.0-2.0-11.0-0.64","1074.5999999046326","","","stimuli/Set_1_rs/192a.jpg","67","","","TR","o","true","o","","","","","","","","","","",""
"image-keyboard-response","167","669138","0.0-2.0-11.0-0.65","1243.1999998092651","","","stimuli/Set_1_rs/147a.jpg","67","","","TR","o","true","o","","","","","","","","","","",""
"image-keyboard-response","168","673642","0.0-2.0-11.0-0.66","1316.0999999046326","","","stimuli/Set_1_rs/032a.jpg","77","","","TF","n","true","n","","","","","","","","","","",""
"image-keyboard-response","169","678144","0.0-2.0-11.0-0.67","1004.3000001907349","","","stimuli/Set_1_rs/128b.jpg","67","","","TL","s","false","o","","","","","","","","","","",""
"image-keyboard-response","170","682648","0.0-2.0-11.0-0.68","1061.4000000953674","","","stimuli/Set_1_rs/186a.jpg","77","","","TF","n","true","n","","","","","","","","","","",""
"image-keyboard-response","171","687151","0.0-2.0-11.0-0.69","990.2999997138977","","","stimuli/Set_1_rs/109a.jpg","67","","","TR","o","true","o","","","","","","","","","","",""
"image-keyboard-response","172","691653","0.0-2.0-11.0-0.70","1110.9000000953674","","","stimuli/Set_1_rs/160a.jpg","77","","","TF","n","true","n","","","","","","","","","","",""
"image-keyboard-response","173","696156","0.0-2.0-11.0-0.71","1520.2999997138977","","","stimuli/Set_1_rs/086a.jpg","66","","","TR","o","false","s","","","","","","","","","","",""
"image-keyboard-response","174","700659","0.0-2.0-11.0-0.72","937.5999999046326","","","stimuli/Set_1_rs/023b.jpg","67","","","TL","s","false","o","","","","","","","","","","",""
"image-keyboard-response","175","705161","0.0-2.0-11.0-0.73","978.9000000953674","","","stimuli/Set_1_rs/114b.jpg","67","","","TL","s","false","o","","","","","","","","","","",""
"image-keyboard-response","176","709664","0.0-2.0-11.0-0.74","972.0999999046326","","","stimuli/Set_1_rs/033b.jpg","67","","","TL","s","false","o","","","","","","","","","","",""
"image-keyboard-response","177","714168","0.0-2.0-11.0-0.75","820.9000000953674","","","stimuli/Set_1_rs/010a.jpg","67","","","TR","o","true","o","","","","","","","","","","",""
"image-keyboard-response","178","718671","0.0-2.0-11.0-0.76","1069.3000001907349","","","stimuli/Set_1_rs/150a.jpg","67","","","TR","o","true","o","","","","","","","","","","",""
"image-keyboard-response","179","723173","0.0-2.0-11.0-0.77","854.7000002861023","","","stimuli/Set_1_rs/038a.jpg","67","","","TR","o","true","o","","","","","","","","","","",""
"image-keyboard-response","180","727676","0.0-2.0-11.0-0.78","1711.9000000953674","","","stimuli/Set_1_rs/022b.jpg","66","","","TL","s","true","s","","","","","","","","","","",""
"image-keyboard-response","181","732180","0.0-2.0-11.0-0.79","1080.8000001907349","","","stimuli/Set_1_rs/018a.jpg","77","","","TF","n","true","n","","","","","","","","","","",""
"image-keyboard-response","182","736683","0.0-2.0-11.0-0.80","1057.1999998092651","","","stimuli/Set_1_rs/081a.jpg","77","","","TF","n","true","n","","","","","","","","","","",""
"image-keyboard-response","183","741186","0.0-2.0-11.0-0.81","1018","","","stimuli/Set_1_rs/107a.jpg","67","","","TR","o","true","o","","","","","","","","","","",""
"image-keyboard-response","184","745689","0.0-2.0-11.0-0.82","803.3000001907349","","","stimuli/Set_1_rs/101b.jpg","67","","","TL","s","false","o","","","","","","","","","","",""
"image-keyboard-response","185","750191","0.0-2.0-11.0-0.83","1324.3000001907349","","","stimuli/Set_1_rs/178b.jpg","66","","","TL","s","true","s","","","","","","","","","","",""
"image-keyboard-response","186","754694","0.0-2.0-11.0-0.84","1125.4000000953674","","","stimuli/Set_1_rs/103b.jpg","66","","","TL","s","true","s","","","","","","","","","","",""
"image-keyboard-response","187","759198","0.0-2.0-11.0-0.85","1502.4000000953674","","","stimuli/Set_1_rs/116b.jpg","66","","","TL","s","true","s","","","","","","","","","","",""
"image-keyboard-response","188","763702","0.0-2.0-11.0-0.86","1911.1999998092651","","","stimuli/Set_1_rs/122a.jpg","66","","","TF","n","false","s","","","","","","","","","","",""
"image-keyboard-response","189","768206","0.0-2.0-11.0-0.87","1135.2999997138977","","","stimuli/Set_1_rs/044a.jpg","66","","","TR","o","false","s","","","","","","","","","","",""
"image-keyboard-response","190","772709","0.0-2.0-11.0-0.88","888","","","stimuli/Set_1_rs/049a.jpg","67","","","TR","o","true","o","","","","","","","","","","",""
"image-keyboard-response","191","777212","0.0-2.0-11.0-0.89","928.5","","","stimuli/Set_1_rs/118a.jpg","67","","","TR","o","true","o","","","","","","","","","","",""
"image-keyboard-response","192","781715","0.0-2.0-11.0-0.90","905.7999997138977","","","stimuli/Set_1_rs/040a.jpg","67","","","TR","o","true","o","","","","","","","","","","",""
"image-keyboard-response","193","786217","0.0-2.0-11.0-0.91","1410.7999997138977","","","stimuli/Set_1_rs/011b.jpg","66","","","TL","s","true","s","","","","","","","","","","",""
"image-keyboard-response","194","790721","0.0-2.0-11.0-0.92","1196","","","stimuli/Set_1_rs/087a.jpg","77","","","TF","n","true","n","","","","","","","","","","",""
"image-keyboard-response","195","795224","0.0-2.0-11.0-0.93","948.5","","","stimuli/Set_1_rs/063a.jpg","67","","","TR","o","true","o","","","","","","","","","","",""
"image-keyboard-response","196","799727","0.0-2.0-11.0-0.94","1005.3000001907349","","","stimuli/Set_1_rs/098b.jpg","66","","","TL","s","true","s","","","","","","","","","","",""
"image-keyboard-response","197","804231","0.0-2.0-11.0-0.95","982.1999998092651","","","stimuli/Set_1_rs/058a.jpg","67","","","TR","o","true","o","","","","","","","","","","",""
"html-keyboard-response","198","810152","0.0-3.0","5918.89999961853","","","<p>Vége a feladatnak. Köszönjük a részvételt!</p>","32","","","","","","","31","3","0","13","18","3","0","4","30","0.9117647058823529","0.4117647058823529"
