"trial_type","trial_index","time_elapsed","internal_node_id","rt","responses","success","stimulus","key_press","cond","enc_response","condition","correct_response","correct","rec_response","targ_old","targ_sim","targ_new","lure_old","lure_sim","lure_new","foil_old","foil_sim","foil_new","recognition_ratio","ldi"
"pavlovia","0","8","0.0-0.0","","","","","","","","","","","","","","","","","","","","","",""
"survey-multi-choice","1","4938","0.0-1.0","4924.700000286102","{""Q0"":""Igen"",""Q1"":""Igen""}","","","","","","","","","","","","","","","","","","","",""
"survey-text","2","9684","0.0-2.0-0.0","4740.699999809265","{""Q0"":""133330""}","","","","","","","","","","","","","","","","","","","",""
"fullscreen","3","11752","0.0-2.0-1.0","","","true","","","","","","","","","","","","","","","","","","",""
"html-keyboard-response","4","15250","0.0-2.0-2.0","3495.2999997138977","","","<p>Üdvözöljük! Ez a feladat két részből áll, és összesen 10-15 percet vesz igénybe.</p>","72","","","","","","","","","","","","","","","","",""
"html-keyboard-response","5","30290","0.0-2.0-3.0-0.0","15037.900000095367","","","<p>Az első részben tárgyakat lát majd a képernyőn, egymás után fognak megjelenni.<br>Az Ön feladata eldönteni, hogy a tárgyak <i>beltéri vagy kültéri</i> tárgyak-e.</p>						   <p>Amennyiben a tárgyat általában beltéren látja, nyomja le a <b>C</b> billentyűt. Amennyiben a tárgyat általában kültéren látja, nyomja le az <b>M</b> billentyűt.</p>						   <p>Ebben a feladatban nincsen mindig egyértelműen jó megoldás. Válaszoljon legjobb tudása szerint. A válaszadásra 2 másodperce lesz.","32","","","","","","","","","","","","","","","","",""
"html-keyboard-response","6","32293","0.0-2.0-3.0-1.0","null","","","<p>Kezdődik a gyakorlás...</p>","null","","","","","","","","","","","","","","","","",""
"image-keyboard-response","7","34299","0.0-2.0-4.0-0.0","1480.1999998092651","","","stimuli/Set_2_rs/165b.jpg","77","-","outdoor","","","","","","","","","","","","","","",""
"html-keyboard-response","8","36913","0.0-2.0-4.0-1.0","2111.9000000953674","","","<p>Az Ön válasza:</p><p>Kültéri.</p>","32","","","","","","","","","","","","","","","","",""
"image-keyboard-response","9","38917","0.0-2.0-4.0-0.1","1437.0999999046326","","","stimuli/Set_2_rs/034a.jpg","67","-","indoor","","","","","","","","","","","","","","",""
"html-keyboard-response","10","40578","0.0-2.0-4.0-1.1","1158.3000001907349","","","<p>Az Ön válasza:</p><p>Beltéri.</p>","32","","","","","","","","","","","","","","","","",""
"image-keyboard-response","11","42582","0.0-2.0-4.0-0.2","1837.0999999046326","","","stimuli/Set_2_rs/049a.jpg","77","SL","outdoor","","","","","","","","","","","","","","",""
"html-keyboard-response","12","44193","0.0-2.0-4.0-1.2","1109.5","","","<p>Az Ön válasza:</p><p>Kültéri.</p>","32","","","","","","","","","","","","","","","","",""
"image-keyboard-response","13","46197","0.0-2.0-4.0-0.3","1341.9000000953674","","","stimuli/Set_2_rs/028a.jpg","67","SR","indoor","","","","","","","","","","","","","","",""
"html-keyboard-response","14","47425","0.0-2.0-4.0-1.3","726","","","<p>Az Ön válasza:</p><p>Beltéri.</p>","32","","","","","","","","","","","","","","","","",""
"image-keyboard-response","15","49428","0.0-2.0-4.0-0.4","1182.1999998092651","","","stimuli/Set_2_rs/135a.jpg","67","SL","indoor","","","","","","","","","","","","","","",""
"html-keyboard-response","16","50673","0.0-2.0-4.0-1.4","743.2999997138977","","","<p>Az Ön válasza:</p><p>Beltéri.</p>","32","","","","","","","","","","","","","","","","",""
"image-keyboard-response","17","52677","0.0-2.0-4.0-0.5","null","","","stimuli/Set_2_rs/137a.jpg","null","SR","null","","","","","","","","","","","","","","",""
"html-keyboard-response","18","56049","0.0-2.0-4.0-1.5","2869.699999809265","","","<p>Az Ön válasza:</p><p>Nem adott választ.</p>","32","","","","","","","","","","","","","","","","",""
"html-keyboard-response","19","72113","0.0-2.0-5.0-0.0","16062.900000095367","","","<p>Ez volt a gyakorlás. A feladat következik. A feladat alatt már nem kap visszajelzést.</p>","32","","","","","","","","","","","","","","","","",""
"html-keyboard-response","20","74115","0.0-2.0-5.0-1.0","null","","","<p>Kezdődik a feladat...</p>","null","","","","","","","","","","","","","","","","",""
"image-keyboard-response","21","76619","0.0-2.0-6.0-0.0","1275.2999997138977","","","stimuli/Set_1_rs/157a.jpg","77","","outdoor","SR","","","","","","","","","","","","","",""
"image-keyboard-response","22","79121","0.0-2.0-6.0-0.1","1428.2999997138977","","","stimuli/Set_1_rs/009a.jpg","67","","indoor","SR","","","","","","","","","","","","","",""
"image-keyboard-response","23","81624","0.0-2.0-6.0-0.2","2061.4000000953674","","","stimuli/Set_1_rs/059a.jpg","67","","indoor","SL","","","","","","","","","","","","","",""
"image-keyboard-response","24","84127","0.0-2.0-6.0-0.3","1046.9000000953674","","","stimuli/Set_1_rs/024a.jpg","77","","outdoor","SR","","","","","","","","","","","","","",""
"image-keyboard-response","25","86630","0.0-2.0-6.0-0.4","1280.0999999046326","","","stimuli/Set_1_rs/101a.jpg","67","","indoor","SL","","","","","","","","","","","","","",""
"image-keyboard-response","26","89134","0.0-2.0-6.0-0.5","1976.2000002861023","","","stimuli/Set_1_rs/137a.jpg","67","","indoor","SR","","","","","","","","","","","","","",""
"image-keyboard-response","27","91637","0.0-2.0-6.0-0.6","2032.5999999046326","","","stimuli/Set_1_rs/011a.jpg","67","","indoor","SL","","","","","","","","","","","","","",""
"image-keyboard-response","28","94139","0.0-2.0-6.0-0.7","1401.5","","","stimuli/Set_1_rs/128a.jpg","67","","indoor","SL","","","","","","","","","","","","","",""
"image-keyboard-response","29","96642","0.0-2.0-6.0-0.8","2242.699999809265","","","stimuli/Set_1_rs/083a.jpg","67","","indoor","SL","","","","","","","","","","","","","",""
"image-keyboard-response","30","99145","0.0-2.0-6.0-0.9","1932.9000000953674","","","stimuli/Set_1_rs/136a.jpg","67","","indoor","SR","","","","","","","","","","","","","",""
"image-keyboard-response","31","101648","0.0-2.0-6.0-0.10","1541.8000001907349","","","stimuli/Set_1_rs/103a.jpg","67","","indoor","SL","","","","","","","","","","","","","",""
"image-keyboard-response","32","104150","0.0-2.0-6.0-0.11","1423.0999999046326","","","stimuli/Set_1_rs/086a.jpg","67","","indoor","SR","","","","","","","","","","","","","",""
"image-keyboard-response","33","106653","0.0-2.0-6.0-0.12","1000.1999998092651","","","stimuli/Set_1_rs/099a.jpg","77","","outdoor","SL","","","","","","","","","","","","","",""
"image-keyboard-response","34","109157","0.0-2.0-6.0-0.13","2032.9000000953674","","","stimuli/Set_1_rs/178a.jpg","67","","indoor","SL","","","","","","","","","","","","","",""
"image-keyboard-response","35","111660","0.0-2.0-6.0-0.14","1800.3000001907349","","","stimuli/Set_1_rs/134a.jpg","67","","indoor","SL","","","","","","","","","","","","","",""
"image-keyboard-response","36","114163","0.0-2.0-6.0-0.15","1234.5","","","stimuli/Set_1_rs/156a.jpg","67","","indoor","SL","","","","","","","","","","","","","",""
"image-keyboard-response","37","116665","0.0-2.0-6.0-0.16","891.0999999046326","","","stimuli/Set_1_rs/054a.jpg","77","","outdoor","SR","","","","","","","","","","","","","",""
"image-keyboard-response","38","119167","0.0-2.0-6.0-0.17","1109.5","","","stimuli/Set_1_rs/092a.jpg","77","","outdoor","SL","","","","","","","","","","","","","",""
"image-keyboard-response","39","121670","0.0-2.0-6.0-0.18","1263.4000000953674","","","stimuli/Set_1_rs/031a.jpg","67","","indoor","SL","","","","","","","","","","","","","",""
"image-keyboard-response","40","124171","0.0-2.0-6.0-0.19","1625.0999999046326","","","stimuli/Set_1_rs/013a.jpg","67","","indoor","SL","","","","","","","","","","","","","",""
"image-keyboard-response","41","126673","0.0-2.0-6.0-0.20","1474.6999998092651","","","stimuli/Set_1_rs/075a.jpg","67","","indoor","SL","","","","","","","","","","","","","",""
"image-keyboard-response","42","129176","0.0-2.0-6.0-0.21","1485.3000001907349","","","stimuli/Set_1_rs/150a.jpg","77","","outdoor","SR","","","","","","","","","","","","","",""
"image-keyboard-response","43","131678","0.0-2.0-6.0-0.22","1159","","","stimuli/Set_1_rs/094a.jpg","67","","indoor","SL","","","","","","","","","","","","","",""
"image-keyboard-response","44","134180","0.0-2.0-6.0-0.23","832.9000000953674","","","stimuli/Set_1_rs/090a.jpg","77","","outdoor","SL","","","","","","","","","","","","","",""
"image-keyboard-response","45","136683","0.0-2.0-6.0-0.24","1578.5","","","stimuli/Set_1_rs/192a.jpg","67","","indoor","SR","","","","","","","","","","","","","",""
"image-keyboard-response","46","139184","0.0-2.0-6.0-0.25","803.5","","","stimuli/Set_1_rs/116a.jpg","67","","indoor","SL","","","","","","","","","","","","","",""
"image-keyboard-response","47","141686","0.0-2.0-6.0-0.26","1054.1000003814697","","","stimuli/Set_1_rs/044a.jpg","67","","indoor","SR","","","","","","","","","","","","","",""
"image-keyboard-response","48","144188","0.0-2.0-6.0-0.27","1560.1000003814697","","","stimuli/Set_1_rs/114a.jpg","67","","indoor","SL","","","","","","","","","","","","","",""
"image-keyboard-response","49","146691","0.0-2.0-6.0-0.28","1585.5","","","stimuli/Set_1_rs/112a.jpg","77","","outdoor","SR","","","","","","","","","","","","","",""
"image-keyboard-response","50","149194","0.0-2.0-6.0-0.29","1435.1999998092651","","","stimuli/Set_1_rs/052a.jpg","67","","indoor","SL","","","","","","","","","","","","","",""
"image-keyboard-response","51","151696","0.0-2.0-6.0-0.30","1812.7999997138977","","","stimuli/Set_1_rs/058a.jpg","67","","indoor","SR","","","","","","","","","","","","","",""
"image-keyboard-response","52","154198","0.0-2.0-6.0-0.31","909.8999996185303","","","stimuli/Set_1_rs/023a.jpg","77","","outdoor","SL","","","","","","","","","","","","","",""
"image-keyboard-response","53","156700","0.0-2.0-6.0-0.32","1767.6999998092651","","","stimuli/Set_1_rs/030a.jpg","67","","indoor","SR","","","","","","","","","","","","","",""
"image-keyboard-response","54","159202","0.0-2.0-6.0-0.33","658.2999997138977","","","stimuli/Set_1_rs/091a.jpg","77","","outdoor","SR","","","","","","","","","","","","","",""
"image-keyboard-response","55","161704","0.0-2.0-6.0-0.34","1147.9000000953674","","","stimuli/Set_1_rs/147a.jpg","77","","outdoor","SR","","","","","","","","","","","","","",""
"image-keyboard-response","56","164206","0.0-2.0-6.0-0.35","1670.5","","","stimuli/Set_1_rs/063a.jpg","77","","outdoor","SR","","","","","","","","","","","","","",""
"image-keyboard-response","57","166709","0.0-2.0-6.0-0.36","1135.9000000953674","","","stimuli/Set_1_rs/040a.jpg","77","","outdoor","SR","","","","","","","","","","","","","",""
"image-keyboard-response","58","169211","0.0-2.0-6.0-0.37","1017.5","","","stimuli/Set_1_rs/038a.jpg","67","","indoor","SR","","","","","","","","","","","","","",""
"image-keyboard-response","59","171714","0.0-2.0-6.0-0.38","1715.5","","","stimuli/Set_1_rs/100a.jpg","67","","indoor","SL","","","","","","","","","","","","","",""
"image-keyboard-response","60","174216","0.0-2.0-6.0-0.39","null","","","stimuli/Set_1_rs/109a.jpg","null","","null","SR","","","","","","","","","","","","","",""
"image-keyboard-response","61","176717","0.0-2.0-6.0-0.40","1125.9000000953674","","","stimuli/Set_1_rs/191a.jpg","67","","indoor","SR","","","","","","","","","","","","","",""
"image-keyboard-response","62","179219","0.0-2.0-6.0-0.41","1584.1999998092651","","","stimuli/Set_1_rs/061a.jpg","67","","indoor","SL","","","","","","","","","","","","","",""
"image-keyboard-response","63","181721","0.0-2.0-6.0-0.42","1370.2000002861023","","","stimuli/Set_1_rs/162a.jpg","67","","indoor","SR","","","","","","","","","","","","","",""
"image-keyboard-response","64","184223","0.0-2.0-6.0-0.43","1588.2000002861023","","","stimuli/Set_1_rs/046a.jpg","77","","outdoor","SR","","","","","","","","","","","","","",""
"image-keyboard-response","65","186726","0.0-2.0-6.0-0.44","1277.9000000953674","","","stimuli/Set_1_rs/155a.jpg","77","","outdoor","SL","","","","","","","","","","","","","",""
"image-keyboard-response","66","189227","0.0-2.0-6.0-0.45","null","","","stimuli/Set_1_rs/010a.jpg","null","","null","SR","","","","","","","","","","","","","",""
"image-keyboard-response","67","191729","0.0-2.0-6.0-0.46","1042.2000002861023","","","stimuli/Set_1_rs/142a.jpg","67","","indoor","SR","","","","","","","","","","","","","",""
"image-keyboard-response","68","194232","0.0-2.0-6.0-0.47","1580","","","stimuli/Set_1_rs/045a.jpg","67","","indoor","SL","","","","","","","","","","","","","",""
"image-keyboard-response","69","196735","0.0-2.0-6.0-0.48","1764.2999997138977","","","stimuli/Set_1_rs/070a.jpg","77","","outdoor","SR","","","","","","","","","","","","","",""
"image-keyboard-response","70","199236","0.0-2.0-6.0-0.49","1358.6999998092651","","","stimuli/Set_1_rs/022a.jpg","67","","indoor","SL","","","","","","","","","","","","","",""
"image-keyboard-response","71","201738","0.0-2.0-6.0-0.50","1721.2000002861023","","","stimuli/Set_1_rs/021a.jpg","77","","outdoor","SR","","","","","","","","","","","","","",""
"image-keyboard-response","72","204239","0.0-2.0-6.0-0.51","1651.5999999046326","","","stimuli/Set_1_rs/098a.jpg","67","","indoor","SL","","","","","","","","","","","","","",""
"image-keyboard-response","73","206741","0.0-2.0-6.0-0.52","1357.5999999046326","","","stimuli/Set_1_rs/008a.jpg","67","","indoor","SL","","","","","","","","","","","","","",""
"image-keyboard-response","74","209243","0.0-2.0-6.0-0.53","1064.0999999046326","","","stimuli/Set_1_rs/012a.jpg","67","","indoor","SL","","","","","","","","","","","","","",""
"image-keyboard-response","75","211745","0.0-2.0-6.0-0.54","978.5999999046326","","","stimuli/Set_1_rs/153a.jpg","67","","indoor","SR","","","","","","","","","","","","","",""
"image-keyboard-response","76","214246","0.0-2.0-6.0-0.55","1756.4000000953674","","","stimuli/Set_1_rs/068a.jpg","67","","indoor","SL","","","","","","","","","","","","","",""
"image-keyboard-response","77","216749","0.0-2.0-6.0-0.56","1190","","","stimuli/Set_1_rs/140a.jpg","67","","indoor","SL","","","","","","","","","","","","","",""
"image-keyboard-response","78","219251","0.0-2.0-6.0-0.57","1824","","","stimuli/Set_1_rs/029a.jpg","67","","indoor","SR","","","","","","","","","","","","","",""
"image-keyboard-response","79","221752","0.0-2.0-6.0-0.58","1482.5","","","stimuli/Set_1_rs/049a.jpg","77","","outdoor","SR","","","","","","","","","","","","","",""
"image-keyboard-response","80","224254","0.0-2.0-6.0-0.59","1252.4000000953674","","","stimuli/Set_1_rs/180a.jpg","67","","indoor","SR","","","","","","","","","","","","","",""
"image-keyboard-response","81","226757","0.0-2.0-6.0-0.60","1102.0999999046326","","","stimuli/Set_1_rs/033a.jpg","67","","indoor","SL","","","","","","","","","","","","","",""
"image-keyboard-response","82","229259","0.0-2.0-6.0-0.61","1560.2000002861023","","","stimuli/Set_1_rs/119a.jpg","77","","outdoor","SL","","","","","","","","","","","","","",""
"image-keyboard-response","83","231761","0.0-2.0-6.0-0.62","1266.2000002861023","","","stimuli/Set_1_rs/118a.jpg","77","","outdoor","SR","","","","","","","","","","","","","",""
"image-keyboard-response","84","234264","0.0-2.0-6.0-0.63","1020.3000001907349","","","stimuli/Set_1_rs/107a.jpg","67","","indoor","SR","","","","","","","","","","","","","",""
"html-keyboard-response","85","268686","0.0-2.0-7.0","34421.59999990463","","","<p>Vége a feladat első részének. Tartson egy pár perces szünetet.</p>","32","","","","","","","","","","","","","","","","",""
"html-keyboard-response","86","286462","0.0-2.0-8.0-0.0","17774.800000190735","","","<p>A következőkben ismét tárgyak jelennek majd meg a képernyőn, egymás után.<br>Az Ön feladata eldönteni, látta-e már ezeket a tárgyakat a vizsgálat első felében.</p>		        			<p>Amennyiben pontosan ugyanezt a tárgyat látta (a tárgy <i>régi</i>), nyomja le a <b>C</b> billentyűt.</p>		        			<p>Amennyiben hasonló tárgyat látott (a tárgy <i>hasonló</i>), nyomja le a <b>B</b> billentyűt.</p>		        			<p>Amennyiben nem látta ezt a tárgyat az első részben (a tárgy <i>új</i>), nyomja le az <b>M</b> billentyűt.</p>","32","","","","","","","","","","","","","","","","",""
"html-keyboard-response","87","288464","0.0-2.0-8.0-1.0","null","","","<p>Kezdődik a gyakorlás...</p>","null","","","","","","","","","","","","","","","","",""
"image-keyboard-response","88","292466","0.0-2.0-9.0-0.0","3676.0999999046326","","","stimuli/Set_2_rs/049b.jpg","67","","","TL","l","false","o","","","","","","","","","","",""
"html-keyboard-response","89","301854","0.0-2.0-9.0-1.0","9385.799999713898","","","<p>A helyes válasz: Hasonló.</p><p>Az Ön válasza: Régi.</p>","32","","","","","","","","","","","","","","","","",""
"image-keyboard-response","90","305857","0.0-2.0-9.0-0.1","2893.5999999046326","","","stimuli/Set_2_rs/018b.jpg","77","","","TF","n","true","n","","","","","","","","","","",""
"html-keyboard-response","91","308334","0.0-2.0-9.0-1.1","2475.2000002861023","","","<p>A helyes válasz: Új.</p><p>Az Ön válasza: Új.</p>","32","","","","","","","","","","","","","","","","",""
"image-keyboard-response","92","312336","0.0-2.0-9.0-0.2","3886.0999999046326","","","stimuli/Set_2_rs/028a.jpg","67","","","TR","o","true","o","","","","","","","","","","",""
"html-keyboard-response","93","315022","0.0-2.0-9.0-1.2","2684.300000190735","","","<p>A helyes válasz: Régi.</p><p>Az Ön válasza: Régi.</p>","32","","","","","","","","","","","","","","","","",""
"image-keyboard-response","94","319024","0.0-2.0-9.0-0.3","2525.9000000953674","","","stimuli/Set_2_rs/137a.jpg","67","","","TR","o","true","o","","","","","","","","","","",""
"html-keyboard-response","95","321294","0.0-2.0-9.0-1.3","2268.1000003814697","","","<p>A helyes válasz: Régi.</p><p>Az Ön válasza: Régi.</p>","32","","","","","","","","","","","","","","","","",""
"image-keyboard-response","96","325296","0.0-2.0-9.0-0.4","1822.0999999046326","","","stimuli/Set_2_rs/135b.jpg","67","","","TL","l","false","o","","","","","","","","","","",""
"html-keyboard-response","97","329726","0.0-2.0-9.0-1.4","4427.799999713898","","","<p>A helyes válasz: Hasonló.</p><p>Az Ön válasza: Régi.</p>","32","","","","","","","","","","","","","","","","",""
"image-keyboard-response","98","333729","0.0-2.0-9.0-0.5","2317.5999999046326","","","stimuli/Set_2_rs/019a.jpg","77","","","TF","n","true","n","","","","","","","","","","",""
"html-keyboard-response","99","335598","0.0-2.0-9.0-1.5","1867.7999997138977","","","<p>A helyes válasz: Új.</p><p>Az Ön válasza: Új.</p>","32","","","","","","","","","","","","","","","","",""
"html-keyboard-response","100","350398","0.0-2.0-10.0-0.0","14799.099999904633","","","<p>Ez volt a gyakorlás. A feladat következik. A feladat alatt már nem kap visszajelzést.</p>","32","","","","","","","","","","","","","","","","",""
"html-keyboard-response","101","352400","0.0-2.0-10.0-1.0","null","","","<p>Kezdődik a feladat...</p>","null","","","","","","","","","","","","","","","","",""
"image-keyboard-response","102","356903","0.0-2.0-11.0-0.0","2283.5","","","stimuli/Set_1_rs/181a.jpg","77","","","TF","n","true","n","","","","","","","","","","",""
"image-keyboard-response","103","361406","0.0-2.0-11.0-0.1","1747.8000001907349","","","stimuli/Set_1_rs/152a.jpg","77","","","TF","n","true","n","","","","","","","","","","",""
"image-keyboard-response","104","365909","0.0-2.0-11.0-0.2","1916.5999999046326","","","stimuli/Set_1_rs/090b.jpg","77","","","TL","s","false","n","","","","","","","","","","",""
"image-keyboard-response","105","370412","0.0-2.0-11.0-0.3","2037.8000001907349","","","stimuli/Set_1_rs/126a.jpg","77","","","TF","n","true","n","","","","","","","","","","",""
"image-keyboard-response","106","374915","0.0-2.0-11.0-0.4","2270.699999809265","","","stimuli/Set_1_rs/068b.jpg","67","","","TL","s","false","o","","","","","","","","","","",""
"image-keyboard-response","107","379418","0.0-2.0-11.0-0.5","1704","","","stimuli/Set_1_rs/054a.jpg","67","","","TR","o","true","o","","","","","","","","","","",""
"image-keyboard-response","108","383921","0.0-2.0-11.0-0.6","1824.6999998092651","","","stimuli/Set_1_rs/162a.jpg","67","","","TR","o","true","o","","","","","","","","","","",""
"image-keyboard-response","109","388424","0.0-2.0-11.0-0.7","1770.5999999046326","","","stimuli/Set_1_rs/019a.jpg","77","","","TF","n","true","n","","","","","","","","","","",""
"image-keyboard-response","110","392927","0.0-2.0-11.0-0.8","2947.2999997138977","","","stimuli/Set_1_rs/119b.jpg","66","","","TL","s","true","s","","","","","","","","","","",""
"image-keyboard-response","111","397430","0.0-2.0-11.0-0.9","2587.800000190735","","","stimuli/Set_1_rs/052b.jpg","67","","","TL","s","false","o","","","","","","","","","","",""
"image-keyboard-response","112","401933","0.0-2.0-11.0-0.10","1668.7000002861023","","","stimuli/Set_1_rs/135a.jpg","77","","","TF","n","true","n","","","","","","","","","","",""
"image-keyboard-response","113","406435","0.0-2.0-11.0-0.11","1485.7000002861023","","","stimuli/Set_1_rs/004a.jpg","77","","","TF","n","true","n","","","","","","","","","","",""
"image-keyboard-response","114","410939","0.0-2.0-11.0-0.12","1558.7000002861023","","","stimuli/Set_1_rs/072a.jpg","77","","","TF","n","true","n","","","","","","","","","","",""
"image-keyboard-response","115","415442","0.0-2.0-11.0-0.13","1263.4000000953674","","","stimuli/Set_1_rs/028a.jpg","77","","","TF","n","true","n","","","","","","","","","","",""
"image-keyboard-response","116","419945","0.0-2.0-11.0-0.14","2136.2000002861023","","","stimuli/Set_1_rs/091a.jpg","67","","","TR","o","true","o","","","","","","","","","","",""
"image-keyboard-response","117","424448","0.0-2.0-11.0-0.15","1953.3999996185303","","","stimuli/Set_1_rs/108a.jpg","77","","","TF","n","true","n","","","","","","","","","","",""
"image-keyboard-response","118","428952","0.0-2.0-11.0-0.16","2346.199999809265","","","stimuli/Set_1_rs/146a.jpg","66","","","TF","n","false","s","","","","","","","","","","",""
"image-keyboard-response","119","433455","0.0-2.0-11.0-0.17","2258.199999809265","","","stimuli/Set_1_rs/013b.jpg","66","","","TL","s","true","s","","","","","","","","","","",""
"image-keyboard-response","120","437957","0.0-2.0-11.0-0.18","1483.5","","","stimuli/Set_1_rs/141a.jpg","77","","","TF","n","true","n","","","","","","","","","","",""
"image-keyboard-response","121","442460","0.0-2.0-11.0-0.19","1860.3000001907349","","","stimuli/Set_1_rs/156b.jpg","67","","","TL","s","false","o","","","","","","","","","","",""
"image-keyboard-response","122","446963","0.0-2.0-11.0-0.20","1885.5999999046326","","","stimuli/Set_1_rs/024a.jpg","67","","","TR","o","true","o","","","","","","","","","","",""
"image-keyboard-response","123","451466","0.0-2.0-11.0-0.21","2310.4000000953674","","","stimuli/Set_1_rs/046a.jpg","66","","","TR","o","false","s","","","","","","","","","","",""
"image-keyboard-response","124","455969","0.0-2.0-11.0-0.22","2335.800000190735","","","stimuli/Set_1_rs/100b.jpg","67","","","TL","s","false","o","","","","","","","","","","",""
"image-keyboard-response","125","460472","0.0-2.0-11.0-0.23","1417.3000001907349","","","stimuli/Set_1_rs/080a.jpg","77","","","TF","n","true","n","","","","","","","","","","",""
"image-keyboard-response","126","464975","0.0-2.0-11.0-0.24","2225.8999996185303","","","stimuli/Set_1_rs/094b.jpg","67","","","TL","s","false","o","","","","","","","","","","",""
"image-keyboard-response","127","469477","0.0-2.0-11.0-0.25","1227.0999999046326","","","stimuli/Set_1_rs/190a.jpg","77","","","TF","n","true","n","","","","","","","","","","",""
"image-keyboard-response","128","473980","0.0-2.0-11.0-0.26","2260.2999997138977","","","stimuli/Set_1_rs/137a.jpg","66","","","TR","o","false","s","","","","","","","","","","",""
"image-keyboard-response","129","478483","0.0-2.0-11.0-0.27","1325.5","","","stimuli/Set_1_rs/180a.jpg","77","","","TR","o","false","n","","","","","","","","","","",""
"image-keyboard-response","130","482986","0.0-2.0-11.0-0.28","2806.0999999046326","","","stimuli/Set_1_rs/134b.jpg","77","","","TL","s","false","n","","","","","","","","","","",""
"image-keyboard-response","131","487489","0.0-2.0-11.0-0.29","1071.1999998092651","","","stimuli/Set_1_rs/088a.jpg","77","","","TF","n","true","n","","","","","","","","","","",""
"image-keyboard-response","132","491993","0.0-2.0-11.0-0.30","1304","","","stimuli/Set_1_rs/165a.jpg","77","","","TF","n","true","n","","","","","","","","","","",""
"image-keyboard-response","133","496496","0.0-2.0-11.0-0.31","1456.5","","","stimuli/Set_1_rs/075b.jpg","77","","","TL","s","false","n","","","","","","","","","","",""
"image-keyboard-response","134","501000","0.0-2.0-11.0-0.32","1865.2000002861023","","","stimuli/Set_1_rs/191a.jpg","67","","","TR","o","true","o","","","","","","","","","","",""
"image-keyboard-response","135","505505","0.0-2.0-11.0-0.33","2847.8999996185303","","","stimuli/Set_1_rs/112a.jpg","67","","","TR","o","true","o","","","","","","","","","","",""
"image-keyboard-response","136","510007","0.0-2.0-11.0-0.34","1528.4000000953674","","","stimuli/Set_1_rs/171a.jpg","77","","","TF","n","true","n","","","","","","","","","","",""
"image-keyboard-response","137","514511","0.0-2.0-11.0-0.35","1906","","","stimuli/Set_1_rs/021a.jpg","67","","","TR","o","true","o","","","","","","","","","","",""
"image-keyboard-response","138","519013","0.0-2.0-11.0-0.36","2618.4000000953674","","","stimuli/Set_1_rs/157a.jpg","67","","","TR","o","true","o","","","","","","","","","","",""
"image-keyboard-response","139","523516","0.0-2.0-11.0-0.37","1620.0999999046326","","","stimuli/Set_1_rs/059b.jpg","77","","","TL","s","false","n","","","","","","","","","","",""
"image-keyboard-response","140","528018","0.0-2.0-11.0-0.38","1693.1999998092651","","","stimuli/Set_1_rs/153a.jpg","66","","","TR","o","false","s","","","","","","","","","","",""
"image-keyboard-response","141","532522","0.0-2.0-11.0-0.39","1062.5999999046326","","","stimuli/Set_1_rs/002a.jpg","77","","","TF","n","true","n","","","","","","","","","","",""
"image-keyboard-response","142","537025","0.0-2.0-11.0-0.40","1646.7000002861023","","","stimuli/Set_1_rs/041a.jpg","77","","","TF","n","true","n","","","","","","","","","","",""
"image-keyboard-response","143","541528","0.0-2.0-11.0-0.41","1095.5","","","stimuli/Set_1_rs/012b.jpg","77","","","TL","s","false","n","","","","","","","","","","",""
"image-keyboard-response","144","546032","0.0-2.0-11.0-0.42","3504.4000000953674","","","stimuli/Set_1_rs/083b.jpg","66","","","TL","s","true","s","","","","","","","","","","",""
"image-keyboard-response","145","550534","0.0-2.0-11.0-0.43","1112.7999997138977","","","stimuli/Set_1_rs/051a.jpg","77","","","TF","n","true","n","","","","","","","","","","",""
"image-keyboard-response","146","555037","0.0-2.0-11.0-0.44","802.3000001907349","","","stimuli/Set_1_rs/168a.jpg","77","","","TF","n","true","n","","","","","","","","","","",""
"image-keyboard-response","147","559540","0.0-2.0-11.0-0.45","2715.2999997138977","","","stimuli/Set_1_rs/155b.jpg","66","","","TL","s","true","s","","","","","","","","","","",""
"image-keyboard-response","148","564043","0.0-2.0-11.0-0.46","1556.4000000953674","","","stimuli/Set_1_rs/045b.jpg","66","","","TL","s","true","s","","","","","","","","","","",""
"image-keyboard-response","149","568546","0.0-2.0-11.0-0.47","1261.9000000953674","","","stimuli/Set_1_rs/031b.jpg","77","","","TL","s","false","n","","","","","","","","","","",""
"image-keyboard-response","150","573048","0.0-2.0-11.0-0.48","2086.5999999046326","","","stimuli/Set_1_rs/136a.jpg","66","","","TR","o","false","s","","","","","","","","","","",""
"image-keyboard-response","151","577551","0.0-2.0-11.0-0.49","895.7000002861023","","","stimuli/Set_1_rs/053a.jpg","77","","","TF","n","true","n","","","","","","","","","","",""
"image-keyboard-response","152","582055","0.0-2.0-11.0-0.50","1001.0999999046326","","","stimuli/Set_1_rs/061b.jpg","77","","","TL","s","false","n","","","","","","","","","","",""
"image-keyboard-response","153","586558","0.0-2.0-11.0-0.51","833.6000003814697","","","stimuli/Set_1_rs/062a.jpg","77","","","TF","n","true","n","","","","","","","","","","",""
"image-keyboard-response","154","591061","0.0-2.0-11.0-0.52","1162.5","","","stimuli/Set_1_rs/009a.jpg","77","","","TR","o","false","n","","","","","","","","","","",""
"image-keyboard-response","155","595563","0.0-2.0-11.0-0.53","1923.5999999046326","","","stimuli/Set_1_rs/099b.jpg","67","","","TL","s","false","o","","","","","","","","","","",""
"image-keyboard-response","156","600066","0.0-2.0-11.0-0.54","1549.0999999046326","","","stimuli/Set_1_rs/030a.jpg","67","","","TR","o","true","o","","","","","","","","","","",""
"image-keyboard-response","157","604569","0.0-2.0-11.0-0.55","1237.9000000953674","","","stimuli/Set_1_rs/029a.jpg","77","","","TR","o","false","n","","","","","","","","","","",""
"image-keyboard-response","158","609072","0.0-2.0-11.0-0.56","3087","","","stimuli/Set_1_rs/140b.jpg","67","","","TL","s","false","o","","","","","","","","","","",""
"image-keyboard-response","159","613575","0.0-2.0-11.0-0.57","1080","","","stimuli/Set_1_rs/182a.jpg","77","","","TF","n","true","n","","","","","","","","","","",""
"image-keyboard-response","160","618078","0.0-2.0-11.0-0.58","2081.0999999046326","","","stimuli/Set_1_rs/151a.jpg","77","","","TF","n","true","n","","","","","","","","","","",""
"image-keyboard-response","161","622581","0.0-2.0-11.0-0.59","2490","","","stimuli/Set_1_rs/142a.jpg","66","","","TR","o","false","s","","","","","","","","","","",""
"image-keyboard-response","162","627086","0.0-2.0-11.0-0.60","1346.5999999046326","","","stimuli/Set_1_rs/070a.jpg","66","","","TR","o","false","s","","","","","","","","","","",""
"image-keyboard-response","163","631589","0.0-2.0-11.0-0.61","826.1000003814697","","","stimuli/Set_1_rs/121a.jpg","77","","","TF","n","true","n","","","","","","","","","","",""
"image-keyboard-response","164","636092","0.0-2.0-11.0-0.62","1843","","","stimuli/Set_1_rs/008b.jpg","77","","","TL","s","false","n","","","","","","","","","","",""
"image-keyboard-response","165","640595","0.0-2.0-11.0-0.63","924","","","stimuli/Set_1_rs/092b.jpg","77","","","TL","s","false","n","","","","","","","","","","",""
"image-keyboard-response","166","645097","0.0-2.0-11.0-0.64","1733.4000000953674","","","stimuli/Set_1_rs/192a.jpg","67","","","TR","o","true","o","","","","","","","","","","",""
"image-keyboard-response","167","649601","0.0-2.0-11.0-0.65","1278.3999996185303","","","stimuli/Set_1_rs/147a.jpg","67","","","TR","o","true","o","","","","","","","","","","",""
"image-keyboard-response","168","654104","0.0-2.0-11.0-0.66","3285.9000000953674","","","stimuli/Set_1_rs/032a.jpg","66","","","TF","n","false","s","","","","","","","","","","",""
"image-keyboard-response","169","658608","0.0-2.0-11.0-0.67","1711.1999998092651","","","stimuli/Set_1_rs/128b.jpg","67","","","TL","s","false","o","","","","","","","","","","",""
"image-keyboard-response","170","663110","0.0-2.0-11.0-0.68","1559.6999998092651","","","stimuli/Set_1_rs/186a.jpg","77","","","TF","n","true","n","","","","","","","","","","",""
"image-keyboard-response","171","667614","0.0-2.0-11.0-0.69","1808.9000000953674","","","stimuli/Set_1_rs/109a.jpg","67","","","TR","o","true","o","","","","","","","","","","",""
"image-keyboard-response","172","672117","0.0-2.0-11.0-0.70","1113.3000001907349","","","stimuli/Set_1_rs/160a.jpg","77","","","TF","n","true","n","","","","","","","","","","",""
"image-keyboard-response","173","676620","0.0-2.0-11.0-0.71","2610.0999999046326","","","stimuli/Set_1_rs/086a.jpg","67","","","TR","o","true","o","","","","","","","","","","",""
"image-keyboard-response","174","681124","0.0-2.0-11.0-0.72","2139","","","stimuli/Set_1_rs/023b.jpg","66","","","TL","s","true","s","","","","","","","","","","",""
"image-keyboard-response","175","685628","0.0-2.0-11.0-0.73","1971.0999999046326","","","stimuli/Set_1_rs/114b.jpg","67","","","TL","s","false","o","","","","","","","","","","",""
"image-keyboard-response","176","690130","0.0-2.0-11.0-0.74","2539.5999999046326","","","stimuli/Set_1_rs/033b.jpg","66","","","TL","s","true","s","","","","","","","","","","",""
"image-keyboard-response","177","694634","0.0-2.0-11.0-0.75","2020.7999997138977","","","stimuli/Set_1_rs/010a.jpg","67","","","TR","o","true","o","","","","","","","","","","",""
"image-keyboard-response","178","699136","0.0-2.0-11.0-0.76","1789.1999998092651","","","stimuli/Set_1_rs/150a.jpg","67","","","TR","o","true","o","","","","","","","","","","",""
"image-keyboard-response","179","703640","0.0-2.0-11.0-0.77","1846.6999998092651","","","stimuli/Set_1_rs/038a.jpg","67","","","TR","o","true","o","","","","","","","","","","",""
"image-keyboard-response","180","708143","0.0-2.0-11.0-0.78","1695.4000000953674","","","stimuli/Set_1_rs/022b.jpg","67","","","TL","s","false","o","","","","","","","","","","",""
"image-keyboard-response","181","712646","0.0-2.0-11.0-0.79","1223.8000001907349","","","stimuli/Set_1_rs/018a.jpg","77","","","TF","n","true","n","","","","","","","","","","",""
"image-keyboard-response","182","717149","0.0-2.0-11.0-0.80","1329.4000000953674","","","stimuli/Set_1_rs/081a.jpg","77","","","TF","n","true","n","","","","","","","","","","",""
"image-keyboard-response","183","721652","0.0-2.0-11.0-0.81","1834","","","stimuli/Set_1_rs/107a.jpg","67","","","TR","o","true","o","","","","","","","","","","",""
"image-keyboard-response","184","726155","0.0-2.0-11.0-0.82","1186.4000000953674","","","stimuli/Set_1_rs/101b.jpg","67","","","TL","s","false","o","","","","","","","","","","",""
"image-keyboard-response","185","730658","0.0-2.0-11.0-0.83","1948","","","stimuli/Set_1_rs/178b.jpg","66","","","TL","s","true","s","","","","","","","","","","",""
"image-keyboard-response","186","735161","0.0-2.0-11.0-0.84","949","","","stimuli/Set_1_rs/103b.jpg","77","","","TL","s","false","n","","","","","","","","","","",""
"image-keyboard-response","187","739664","0.0-2.0-11.0-0.85","2094.2999997138977","","","stimuli/Set_1_rs/116b.jpg","67","","","TL","s","false","o","","","","","","","","","","",""
"image-keyboard-response","188","744167","0.0-2.0-11.0-0.86","1047.1999998092651","","","stimuli/Set_1_rs/122a.jpg","77","","","TF","n","true","n","","","","","","","","","","",""
"image-keyboard-response","189","748669","0.0-2.0-11.0-0.87","1807.9000000953674","","","stimuli/Set_1_rs/044a.jpg","67","","","TR","o","true","o","","","","","","","","","","",""
"image-keyboard-response","190","753172","0.0-2.0-11.0-0.88","1801.2000002861023","","","stimuli/Set_1_rs/049a.jpg","67","","","TR","o","true","o","","","","","","","","","","",""
"image-keyboard-response","191","757676","0.0-2.0-11.0-0.89","1890.8000001907349","","","stimuli/Set_1_rs/118a.jpg","67","","","TR","o","true","o","","","","","","","","","","",""
"image-keyboard-response","192","762179","0.0-2.0-11.0-0.90","986.9000000953674","","","stimuli/Set_1_rs/040a.jpg","67","","","TR","o","true","o","","","","","","","","","","",""
"image-keyboard-response","193","766682","0.0-2.0-11.0-0.91","1971.9000000953674","","","stimuli/Set_1_rs/011b.jpg","67","","","TL","s","false","o","","","","","","","","","","",""
"image-keyboard-response","194","771185","0.0-2.0-11.0-0.92","956.7000002861023","","","stimuli/Set_1_rs/087a.jpg","77","","","TF","n","true","n","","","","","","","","","","",""
"image-keyboard-response","195","775688","0.0-2.0-11.0-0.93","2069.5","","","stimuli/Set_1_rs/063a.jpg","67","","","TR","o","true","o","","","","","","","","","","",""
"image-keyboard-response","196","780191","0.0-2.0-11.0-0.94","734.7999997138977","","","stimuli/Set_1_rs/098b.jpg","77","","","TL","s","false","n","","","","","","","","","","",""
"image-keyboard-response","197","784694","0.0-2.0-11.0-0.95","3063.7999997138977","","","stimuli/Set_1_rs/058a.jpg","67","","","TR","o","true","o","","","","","","","","","","",""
"html-keyboard-response","198","796200","0.0-3.0","11504.800000190735","","","<p>Vége a feladatnak. Köszönjük a részvételt!</p>","13","","","","","","","25","6","3","15","8","11","0","2","32","0.7352941176470589","0.1764705882352941"
