"trial_type","trial_index","time_elapsed","internal_node_id","rt","responses","success","stimulus","key_press","cond","enc_response","condition","correct_response","correct","rec_response","targ_old","targ_sim","targ_new","lure_old","lure_sim","lure_new","foil_old","foil_sim","foil_new","recognition_ratio","ldi"
"pavlovia","0","7","0.0-0.0","","","","","","","","","","","","","","","","","","","","","",""
"survey-multi-choice","1","9057","0.0-1.0","9046.299999952316","{""Q0"":""Igen"",""Q1"":""Igen""}","","","","","","","","","","","","","","","","","","","",""
"survey-text","2","29775","0.0-2.0-0.0","20714","{""Q0"":""076057""}","","","","","","","","","","","","","","","","","","","",""
"fullscreen","3","32916","0.0-2.0-1.0","","","true","","","","","","","","","","","","","","","","","","",""
"html-keyboard-response","4","53897","0.0-2.0-2.0","20978.399999976158","","","<p>Üdvözöljük! Ez a feladat két részből áll, és összesen 10-15 percet vesz igénybe.</p>","77","","","","","","","","","","","","","","","","",""
"html-keyboard-response","5","107094","0.0-2.0-3.0-0.0","53196.299999952316","","","<p>Az első részben tárgyakat lát majd a képernyőn, egymás után fognak megjelenni.<br>Az Ön feladata eldönteni, hogy a tárgyak <i>beltéri vagy kültéri</i> tárgyak-e.</p>						   <p>Amennyiben a tárgyat általában beltéren látja, nyomja le a <b>C</b> billentyűt. Amennyiben a tárgyat általában kültéren látja, nyomja le az <b>M</b> billentyűt.</p>						   <p>Ebben a feladatban nincsen mindig egyértelműen jó megoldás. Válaszoljon legjobb tudása szerint. A válaszadásra 2 másodperce lesz.","32","","","","","","","","","","","","","","","","",""
"html-keyboard-response","6","109097","0.0-2.0-3.0-1.0","null","","","<p>Kezdődik a gyakorlás...</p>","null","","","","","","","","","","","","","","","","",""
"image-keyboard-response","7","111102","0.0-2.0-4.0-0.0","null","","","stimuli/Set_2_rs/165b.jpg","null","-","null","","","","","","","","","","","","","","",""
"html-keyboard-response","8","115574","0.0-2.0-4.0-1.0","3968.7999999523163","","","<p>Az Ön válasza:</p><p>Nem adott választ.</p>","32","","","","","","","","","","","","","","","","",""
"image-keyboard-response","9","117578","0.0-2.0-4.0-0.1","1533.2000000476837","","","stimuli/Set_2_rs/034a.jpg","67","-","indoor","","","","","","","","","","","","","","",""
"html-keyboard-response","10","122022","0.0-2.0-4.0-1.1","3942.7999999523163","","","<p>Az Ön válasza:</p><p>Beltéri.</p>","32","","","","","","","","","","","","","","","","",""
"image-keyboard-response","11","124025","0.0-2.0-4.0-0.2","1293.5","","","stimuli/Set_2_rs/049a.jpg","77","SL","outdoor","","","","","","","","","","","","","","",""
"html-keyboard-response","12","126166","0.0-2.0-4.0-1.2","1638.2000000476837","","","<p>Az Ön válasza:</p><p>Kültéri.</p>","32","","","","","","","","","","","","","","","","",""
"image-keyboard-response","13","128169","0.0-2.0-4.0-0.3","1359.1999999284744","","","stimuli/Set_2_rs/028a.jpg","67","SR","indoor","","","","","","","","","","","","","","",""
"html-keyboard-response","14","130534","0.0-2.0-4.0-1.3","1862.8999999761581","","","<p>Az Ön válasza:</p><p>Beltéri.</p>","32","","","","","","","","","","","","","","","","",""
"image-keyboard-response","15","132538","0.0-2.0-4.0-0.4","1197.3999999761581","","","stimuli/Set_2_rs/135a.jpg","67","SL","indoor","","","","","","","","","","","","","","",""
"html-keyboard-response","16","134838","0.0-2.0-4.0-1.4","1798.5","","","<p>Az Ön válasza:</p><p>Beltéri.</p>","32","","","","","","","","","","","","","","","","",""
"image-keyboard-response","17","136840","0.0-2.0-4.0-0.5","1918.7999999523163","","","stimuli/Set_2_rs/137a.jpg","67","SR","indoor","","","","","","","","","","","","","","",""
"html-keyboard-response","18","139447","0.0-2.0-4.0-1.5","2103.7999999523163","","","<p>Az Ön válasza:</p><p>Beltéri.</p>","32","","","","","","","","","","","","","","","","",""
"html-keyboard-response","19","146342","0.0-2.0-5.0-0.0","6894.5","","","<p>Ez volt a gyakorlás. A feladat következik. A feladat alatt már nem kap visszajelzést.</p>","32","","","","","","","","","","","","","","","","",""
"html-keyboard-response","20","148344","0.0-2.0-5.0-1.0","null","","","<p>Kezdődik a feladat...</p>","null","","","","","","","","","","","","","","","","",""
"image-keyboard-response","21","150847","0.0-2.0-6.0-0.0","1435.7999999523163","","","stimuli/Set_1_rs/157a.jpg","67","","indoor","SR","","","","","","","","","","","","","",""
"image-keyboard-response","22","153349","0.0-2.0-6.0-0.1","1077.8000000715256","","","stimuli/Set_1_rs/009a.jpg","67","","indoor","SR","","","","","","","","","","","","","",""
"image-keyboard-response","23","155852","0.0-2.0-6.0-0.2","null","","","stimuli/Set_1_rs/059a.jpg","null","","null","SL","","","","","","","","","","","","","",""
"image-keyboard-response","24","158355","0.0-2.0-6.0-0.3","1239.8999999761581","","","stimuli/Set_1_rs/024a.jpg","77","","outdoor","SR","","","","","","","","","","","","","",""
"image-keyboard-response","25","160858","0.0-2.0-6.0-0.4","1008.8999999761581","","","stimuli/Set_1_rs/101a.jpg","67","","indoor","SL","","","","","","","","","","","","","",""
"image-keyboard-response","26","163361","0.0-2.0-6.0-0.5","1209.7999999523163","","","stimuli/Set_1_rs/137a.jpg","77","","outdoor","SR","","","","","","","","","","","","","",""
"image-keyboard-response","27","165864","0.0-2.0-6.0-0.6","914.7000000476837","","","stimuli/Set_1_rs/011a.jpg","77","","outdoor","SL","","","","","","","","","","","","","",""
"image-keyboard-response","28","168366","0.0-2.0-6.0-0.7","1036.1000000238419","","","stimuli/Set_1_rs/128a.jpg","77","","outdoor","SL","","","","","","","","","","","","","",""
"image-keyboard-response","29","170868","0.0-2.0-6.0-0.8","1030.6999999284744","","","stimuli/Set_1_rs/083a.jpg","67","","indoor","SL","","","","","","","","","","","","","",""
"image-keyboard-response","30","173370","0.0-2.0-6.0-0.9","1408.5999999046326","","","stimuli/Set_1_rs/136a.jpg","77","","outdoor","SR","","","","","","","","","","","","","",""
"image-keyboard-response","31","175872","0.0-2.0-6.0-0.10","1178.3000000715256","","","stimuli/Set_1_rs/103a.jpg","67","","indoor","SL","","","","","","","","","","","","","",""
"image-keyboard-response","32","178374","0.0-2.0-6.0-0.11","787.2999999523163","","","stimuli/Set_1_rs/086a.jpg","67","","indoor","SR","","","","","","","","","","","","","",""
"image-keyboard-response","33","180876","0.0-2.0-6.0-0.12","1053.7000000476837","","","stimuli/Set_1_rs/099a.jpg","67","","indoor","SL","","","","","","","","","","","","","",""
"image-keyboard-response","34","183379","0.0-2.0-6.0-0.13","2343.5","","","stimuli/Set_1_rs/178a.jpg","67","","indoor","SL","","","","","","","","","","","","","",""
"image-keyboard-response","35","185882","0.0-2.0-6.0-0.14","1456.7000000476837","","","stimuli/Set_1_rs/134a.jpg","77","","outdoor","SL","","","","","","","","","","","","","",""
"image-keyboard-response","36","188384","0.0-2.0-6.0-0.15","1049.6999999284744","","","stimuli/Set_1_rs/156a.jpg","67","","indoor","SL","","","","","","","","","","","","","",""
"image-keyboard-response","37","190888","0.0-2.0-6.0-0.16","1218.6000000238419","","","stimuli/Set_1_rs/054a.jpg","67","","indoor","SR","","","","","","","","","","","","","",""
"image-keyboard-response","38","193390","0.0-2.0-6.0-0.17","1020.6000000238419","","","stimuli/Set_1_rs/092a.jpg","77","","outdoor","SL","","","","","","","","","","","","","",""
"image-keyboard-response","39","195892","0.0-2.0-6.0-0.18","1126.1999999284744","","","stimuli/Set_1_rs/031a.jpg","67","","indoor","SL","","","","","","","","","","","","","",""
"image-keyboard-response","40","198394","0.0-2.0-6.0-0.19","1423.7999999523163","","","stimuli/Set_1_rs/013a.jpg","77","","outdoor","SL","","","","","","","","","","","","","",""
"image-keyboard-response","41","200896","0.0-2.0-6.0-0.20","1065.2000000476837","","","stimuli/Set_1_rs/075a.jpg","67","","indoor","SL","","","","","","","","","","","","","",""
"image-keyboard-response","42","203399","0.0-2.0-6.0-0.21","1411.1000000238419","","","stimuli/Set_1_rs/150a.jpg","67","","indoor","SR","","","","","","","","","","","","","",""
"image-keyboard-response","43","205903","0.0-2.0-6.0-0.22","940.2999999523163","","","stimuli/Set_1_rs/094a.jpg","67","","indoor","SL","","","","","","","","","","","","","",""
"image-keyboard-response","44","208406","0.0-2.0-6.0-0.23","1044.7000000476837","","","stimuli/Set_1_rs/090a.jpg","77","","outdoor","SL","","","","","","","","","","","","","",""
"image-keyboard-response","45","210909","0.0-2.0-6.0-0.24","1197.8999999761581","","","stimuli/Set_1_rs/192a.jpg","67","","indoor","SR","","","","","","","","","","","","","",""
"image-keyboard-response","46","213411","0.0-2.0-6.0-0.25","934.1999999284744","","","stimuli/Set_1_rs/116a.jpg","67","","indoor","SL","","","","","","","","","","","","","",""
"image-keyboard-response","47","215912","0.0-2.0-6.0-0.26","1041.7000000476837","","","stimuli/Set_1_rs/044a.jpg","67","","indoor","SR","","","","","","","","","","","","","",""
"image-keyboard-response","48","218414","0.0-2.0-6.0-0.27","1196","","","stimuli/Set_1_rs/114a.jpg","67","","indoor","SL","","","","","","","","","","","","","",""
"image-keyboard-response","49","220917","0.0-2.0-6.0-0.28","1204.6000000238419","","","stimuli/Set_1_rs/112a.jpg","67","","indoor","SR","","","","","","","","","","","","","",""
"image-keyboard-response","50","223419","0.0-2.0-6.0-0.29","1437.6000000238419","","","stimuli/Set_1_rs/052a.jpg","67","","indoor","SL","","","","","","","","","","","","","",""
"image-keyboard-response","51","225921","0.0-2.0-6.0-0.30","1736.7999999523163","","","stimuli/Set_1_rs/058a.jpg","67","","indoor","SR","","","","","","","","","","","","","",""
"image-keyboard-response","52","228424","0.0-2.0-6.0-0.31","962.1000000238419","","","stimuli/Set_1_rs/023a.jpg","77","","outdoor","SL","","","","","","","","","","","","","",""
"image-keyboard-response","53","230926","0.0-2.0-6.0-0.32","1322.6000000238419","","","stimuli/Set_1_rs/030a.jpg","77","","outdoor","SR","","","","","","","","","","","","","",""
"image-keyboard-response","54","233429","0.0-2.0-6.0-0.33","1604.7000000476837","","","stimuli/Set_1_rs/091a.jpg","67","","indoor","SR","","","","","","","","","","","","","",""
"image-keyboard-response","55","235932","0.0-2.0-6.0-0.34","null","","","stimuli/Set_1_rs/147a.jpg","null","","null","SR","","","","","","","","","","","","","",""
"image-keyboard-response","56","238435","0.0-2.0-6.0-0.35","295.1999999284744","","","stimuli/Set_1_rs/063a.jpg","77","","outdoor","SR","","","","","","","","","","","","","",""
"image-keyboard-response","57","240940","0.0-2.0-6.0-0.36","895.3000000715256","","","stimuli/Set_1_rs/040a.jpg","67","","indoor","SR","","","","","","","","","","","","","",""
"image-keyboard-response","58","243443","0.0-2.0-6.0-0.37","1110.6000000238419","","","stimuli/Set_1_rs/038a.jpg","67","","indoor","SR","","","","","","","","","","","","","",""
"image-keyboard-response","59","245946","0.0-2.0-6.0-0.38","1008","","","stimuli/Set_1_rs/100a.jpg","67","","indoor","SL","","","","","","","","","","","","","",""
"image-keyboard-response","60","248447","0.0-2.0-6.0-0.39","889.3999999761581","","","stimuli/Set_1_rs/109a.jpg","77","","outdoor","SR","","","","","","","","","","","","","",""
"image-keyboard-response","61","250950","0.0-2.0-6.0-0.40","1027.5","","","stimuli/Set_1_rs/191a.jpg","77","","outdoor","SR","","","","","","","","","","","","","",""
"image-keyboard-response","62","253451","0.0-2.0-6.0-0.41","1341.6000000238419","","","stimuli/Set_1_rs/061a.jpg","67","","indoor","SL","","","","","","","","","","","","","",""
"image-keyboard-response","63","255954","0.0-2.0-6.0-0.42","1095.8999999761581","","","stimuli/Set_1_rs/162a.jpg","77","","outdoor","SR","","","","","","","","","","","","","",""
"image-keyboard-response","64","258457","0.0-2.0-6.0-0.43","1280.6000000238419","","","stimuli/Set_1_rs/046a.jpg","77","","outdoor","SR","","","","","","","","","","","","","",""
"image-keyboard-response","65","260960","0.0-2.0-6.0-0.44","1017.5","","","stimuli/Set_1_rs/155a.jpg","77","","outdoor","SL","","","","","","","","","","","","","",""
"image-keyboard-response","66","263462","0.0-2.0-6.0-0.45","1187","","","stimuli/Set_1_rs/010a.jpg","67","","indoor","SR","","","","","","","","","","","","","",""
"image-keyboard-response","67","265965","0.0-2.0-6.0-0.46","1148.6000000238419","","","stimuli/Set_1_rs/142a.jpg","77","","outdoor","SR","","","","","","","","","","","","","",""
"image-keyboard-response","68","268468","0.0-2.0-6.0-0.47","1317.8999999761581","","","stimuli/Set_1_rs/045a.jpg","67","","indoor","SL","","","","","","","","","","","","","",""
"image-keyboard-response","69","270971","0.0-2.0-6.0-0.48","1694.5","","","stimuli/Set_1_rs/070a.jpg","77","","outdoor","SR","","","","","","","","","","","","","",""
"image-keyboard-response","70","273474","0.0-2.0-6.0-0.49","1223.5","","","stimuli/Set_1_rs/022a.jpg","77","","outdoor","SL","","","","","","","","","","","","","",""
"image-keyboard-response","71","275977","0.0-2.0-6.0-0.50","1216.5","","","stimuli/Set_1_rs/021a.jpg","77","","outdoor","SR","","","","","","","","","","","","","",""
"image-keyboard-response","72","278480","0.0-2.0-6.0-0.51","1129.1999999284744","","","stimuli/Set_1_rs/098a.jpg","67","","indoor","SL","","","","","","","","","","","","","",""
"image-keyboard-response","73","280983","0.0-2.0-6.0-0.52","882.1000000238419","","","stimuli/Set_1_rs/008a.jpg","67","","indoor","SL","","","","","","","","","","","","","",""
"image-keyboard-response","74","283485","0.0-2.0-6.0-0.53","1611.3999999761581","","","stimuli/Set_1_rs/012a.jpg","77","","outdoor","SL","","","","","","","","","","","","","",""
"image-keyboard-response","75","285987","0.0-2.0-6.0-0.54","854.1000000238419","","","stimuli/Set_1_rs/153a.jpg","67","","indoor","SR","","","","","","","","","","","","","",""
"image-keyboard-response","76","288489","0.0-2.0-6.0-0.55","896.6000000238419","","","stimuli/Set_1_rs/068a.jpg","67","","indoor","SL","","","","","","","","","","","","","",""
"image-keyboard-response","77","290992","0.0-2.0-6.0-0.56","953.1000000238419","","","stimuli/Set_1_rs/140a.jpg","67","","indoor","SL","","","","","","","","","","","","","",""
"image-keyboard-response","78","293495","0.0-2.0-6.0-0.57","1538.3999999761581","","","stimuli/Set_1_rs/029a.jpg","67","","indoor","SR","","","","","","","","","","","","","",""
"image-keyboard-response","79","295998","0.0-2.0-6.0-0.58","1003.2999999523163","","","stimuli/Set_1_rs/049a.jpg","77","","outdoor","SR","","","","","","","","","","","","","",""
"image-keyboard-response","80","298501","0.0-2.0-6.0-0.59","788.6999999284744","","","stimuli/Set_1_rs/180a.jpg","67","","indoor","SR","","","","","","","","","","","","","",""
"image-keyboard-response","81","301004","0.0-2.0-6.0-0.60","1549.5","","","stimuli/Set_1_rs/033a.jpg","67","","indoor","SL","","","","","","","","","","","","","",""
"image-keyboard-response","82","303506","0.0-2.0-6.0-0.61","1958.3000000715256","","","stimuli/Set_1_rs/119a.jpg","77","","outdoor","SL","","","","","","","","","","","","","",""
"image-keyboard-response","83","306008","0.0-2.0-6.0-0.62","913.3999999761581","","","stimuli/Set_1_rs/118a.jpg","67","","indoor","SR","","","","","","","","","","","","","",""
"image-keyboard-response","84","308509","0.0-2.0-6.0-0.63","1099.7999999523163","","","stimuli/Set_1_rs/107a.jpg","67","","indoor","SR","","","","","","","","","","","","","",""
"html-keyboard-response","85","339269","0.0-2.0-7.0","30758.200000047684","","","<p>Vége a feladat első részének. Tartson egy pár perces szünetet.</p>","32","","","","","","","","","","","","","","","","",""
"html-keyboard-response","86","379588","0.0-2.0-8.0-0.0","40317.800000071526","","","<p>A következőkben ismét tárgyak jelennek majd meg a képernyőn, egymás után.<br>Az Ön feladata eldönteni, látta-e már ezeket a tárgyakat a vizsgálat első felében.</p>		        			<p>Amennyiben pontosan ugyanezt a tárgyat látta (a tárgy <i>régi</i>), nyomja le a <b>C</b> billentyűt.</p>		        			<p>Amennyiben hasonló tárgyat látott (a tárgy <i>hasonló</i>), nyomja le a <b>B</b> billentyűt.</p>		        			<p>Amennyiben nem látta ezt a tárgyat az első részben (a tárgy <i>új</i>), nyomja le az <b>M</b> billentyűt.</p>","32","","","","","","","","","","","","","","","","",""
"html-keyboard-response","87","381590","0.0-2.0-8.0-1.0","null","","","<p>Kezdődik a gyakorlás...</p>","null","","","","","","","","","","","","","","","","",""
"image-keyboard-response","88","385594","0.0-2.0-9.0-0.0","1898.3999999761581","","","stimuli/Set_2_rs/049b.jpg","67","","","TL","l","false","o","","","","","","","","","","",""
"html-keyboard-response","89","390963","0.0-2.0-9.0-1.0","5366.899999976158","","","<p>A helyes válasz: Hasonló.</p><p>Az Ön válasza: Régi.</p>","32","","","","","","","","","","","","","","","","",""
"image-keyboard-response","90","394967","0.0-2.0-9.0-0.1","3260.7999999523163","","","stimuli/Set_2_rs/018b.jpg","77","","","TF","n","true","n","","","","","","","","","","",""
"html-keyboard-response","91","396788","0.0-2.0-9.0-1.1","1818.6999999284744","","","<p>A helyes válasz: Új.</p><p>Az Ön válasza: Új.</p>","32","","","","","","","","","","","","","","","","",""
"image-keyboard-response","92","400791","0.0-2.0-9.0-0.2","1086.7000000476837","","","stimuli/Set_2_rs/028a.jpg","67","","","TR","o","true","o","","","","","","","","","","",""
"html-keyboard-response","93","406804","0.0-2.0-9.0-1.2","6010.600000023842","","","<p>A helyes válasz: Régi.</p><p>Az Ön válasza: Régi.</p>","32","","","","","","","","","","","","","","","","",""
"image-keyboard-response","94","410808","0.0-2.0-9.0-0.3","1037.4000000953674","","","stimuli/Set_2_rs/137a.jpg","67","","","TR","o","true","o","","","","","","","","","","",""
"html-keyboard-response","95","412740","0.0-2.0-9.0-1.3","1929.8999999761581","","","<p>A helyes válasz: Régi.</p><p>Az Ön válasza: Régi.</p>","32","","","","","","","","","","","","","","","","",""
"image-keyboard-response","96","416744","0.0-2.0-9.0-0.4","973.5","","","stimuli/Set_2_rs/135b.jpg","67","","","TL","l","false","o","","","","","","","","","","",""
"html-keyboard-response","97","420212","0.0-2.0-9.0-1.4","3466.2000000476837","","","<p>A helyes válasz: Hasonló.</p><p>Az Ön válasza: Régi.</p>","32","","","","","","","","","","","","","","","","",""
"image-keyboard-response","98","424216","0.0-2.0-9.0-0.5","3084.7000000476837","","","stimuli/Set_2_rs/019a.jpg","77","","","TF","n","true","n","","","","","","","","","","",""
"html-keyboard-response","99","425780","0.0-2.0-9.0-1.5","1562.2000000476837","","","<p>A helyes válasz: Új.</p><p>Az Ön válasza: Új.</p>","32","","","","","","","","","","","","","","","","",""
"html-keyboard-response","100","429684","0.0-2.0-10.0-0.0","3902.7000000476837","","","<p>Ez volt a gyakorlás. A feladat következik. A feladat alatt már nem kap visszajelzést.</p>","32","","","","","","","","","","","","","","","","",""
"html-keyboard-response","101","431685","0.0-2.0-10.0-1.0","null","","","<p>Kezdődik a feladat...</p>","null","","","","","","","","","","","","","","","","",""
"image-keyboard-response","102","436189","0.0-2.0-11.0-0.0","2267.8000000715256","","","stimuli/Set_1_rs/181a.jpg","77","","","TF","n","true","n","","","","","","","","","","",""
"image-keyboard-response","103","440691","0.0-2.0-11.0-0.1","1396.5","","","stimuli/Set_1_rs/152a.jpg","77","","","TF","n","true","n","","","","","","","","","","",""
"image-keyboard-response","104","445194","0.0-2.0-11.0-0.2","1037.1000000238419","","","stimuli/Set_1_rs/090b.jpg","67","","","TL","s","false","o","","","","","","","","","","",""
"image-keyboard-response","105","449697","0.0-2.0-11.0-0.3","1830.2000000476837","","","stimuli/Set_1_rs/126a.jpg","77","","","TF","n","true","n","","","","","","","","","","",""
"image-keyboard-response","106","454201","0.0-2.0-11.0-0.4","1919.2000000476837","","","stimuli/Set_1_rs/068b.jpg","67","","","TL","s","false","o","","","","","","","","","","",""
"image-keyboard-response","107","458704","0.0-2.0-11.0-0.5","1159.6000000238419","","","stimuli/Set_1_rs/054a.jpg","67","","","TR","o","true","o","","","","","","","","","","",""
"image-keyboard-response","108","463208","0.0-2.0-11.0-0.6","1023.6999999284744","","","stimuli/Set_1_rs/162a.jpg","67","","","TR","o","true","o","","","","","","","","","","",""
"image-keyboard-response","109","467711","0.0-2.0-11.0-0.7","1528.6000000238419","","","stimuli/Set_1_rs/019a.jpg","77","","","TF","n","true","n","","","","","","","","","","",""
"image-keyboard-response","110","472213","0.0-2.0-11.0-0.8","1170.1000000238419","","","stimuli/Set_1_rs/119b.jpg","67","","","TL","s","false","o","","","","","","","","","","",""
"image-keyboard-response","111","476715","0.0-2.0-11.0-0.9","812.4000000953674","","","stimuli/Set_1_rs/052b.jpg","67","","","TL","s","false","o","","","","","","","","","","",""
"image-keyboard-response","112","481218","0.0-2.0-11.0-0.10","1301","","","stimuli/Set_1_rs/135a.jpg","77","","","TF","n","true","n","","","","","","","","","","",""
"image-keyboard-response","113","485721","0.0-2.0-11.0-0.11","1566.3000000715256","","","stimuli/Set_1_rs/004a.jpg","77","","","TF","n","true","n","","","","","","","","","","",""
"image-keyboard-response","114","490223","0.0-2.0-11.0-0.12","1223.7999999523163","","","stimuli/Set_1_rs/072a.jpg","77","","","TF","n","true","n","","","","","","","","","","",""
"image-keyboard-response","115","494727","0.0-2.0-11.0-0.13","1457","","","stimuli/Set_1_rs/028a.jpg","77","","","TF","n","true","n","","","","","","","","","","",""
"image-keyboard-response","116","499230","0.0-2.0-11.0-0.14","1193.2999999523163","","","stimuli/Set_1_rs/091a.jpg","67","","","TR","o","true","o","","","","","","","","","","",""
"image-keyboard-response","117","503734","0.0-2.0-11.0-0.15","2098.2999999523163","","","stimuli/Set_1_rs/108a.jpg","66","","","TF","n","false","s","","","","","","","","","","",""
"image-keyboard-response","118","508238","0.0-2.0-11.0-0.16","1498.1000000238419","","","stimuli/Set_1_rs/146a.jpg","67","","","TF","n","false","o","","","","","","","","","","",""
"image-keyboard-response","119","512741","0.0-2.0-11.0-0.17","1283.5","","","stimuli/Set_1_rs/013b.jpg","67","","","TL","s","false","o","","","","","","","","","","",""
"image-keyboard-response","120","517245","0.0-2.0-11.0-0.18","2124.7999999523163","","","stimuli/Set_1_rs/141a.jpg","67","","","TF","n","false","o","","","","","","","","","","",""
"image-keyboard-response","121","521748","0.0-2.0-11.0-0.19","883.3999999761581","","","stimuli/Set_1_rs/156b.jpg","67","","","TL","s","false","o","","","","","","","","","","",""
"image-keyboard-response","122","526250","0.0-2.0-11.0-0.20","1117.2000000476837","","","stimuli/Set_1_rs/024a.jpg","67","","","TR","o","true","o","","","","","","","","","","",""
"image-keyboard-response","123","530753","0.0-2.0-11.0-0.21","1383.4000000953674","","","stimuli/Set_1_rs/046a.jpg","67","","","TR","o","true","o","","","","","","","","","","",""
"image-keyboard-response","124","535255","0.0-2.0-11.0-0.22","1024.2999999523163","","","stimuli/Set_1_rs/100b.jpg","67","","","TL","s","false","o","","","","","","","","","","",""
"image-keyboard-response","125","539758","0.0-2.0-11.0-0.23","1626.1000000238419","","","stimuli/Set_1_rs/080a.jpg","66","","","TF","n","false","s","","","","","","","","","","",""
"image-keyboard-response","126","544260","0.0-2.0-11.0-0.24","883.7000000476837","","","stimuli/Set_1_rs/094b.jpg","67","","","TL","s","false","o","","","","","","","","","","",""
"image-keyboard-response","127","548762","0.0-2.0-11.0-0.25","1037.6999999284744","","","stimuli/Set_1_rs/190a.jpg","77","","","TF","n","true","n","","","","","","","","","","",""
"image-keyboard-response","128","553265","0.0-2.0-11.0-0.26","1286.3999999761581","","","stimuli/Set_1_rs/137a.jpg","67","","","TR","o","true","o","","","","","","","","","","",""
"image-keyboard-response","129","557768","0.0-2.0-11.0-0.27","1151.6999999284744","","","stimuli/Set_1_rs/180a.jpg","67","","","TR","o","true","o","","","","","","","","","","",""
"image-keyboard-response","130","562270","0.0-2.0-11.0-0.28","1657.3000000715256","","","stimuli/Set_1_rs/134b.jpg","67","","","TL","s","false","o","","","","","","","","","","",""
"image-keyboard-response","131","566772","0.0-2.0-11.0-0.29","2898.3000000715256","","","stimuli/Set_1_rs/088a.jpg","66","","","TF","n","false","s","","","","","","","","","","",""
"image-keyboard-response","132","571275","0.0-2.0-11.0-0.30","1083.1000000238419","","","stimuli/Set_1_rs/165a.jpg","77","","","TF","n","true","n","","","","","","","","","","",""
"image-keyboard-response","133","575778","0.0-2.0-11.0-0.31","2692.5","","","stimuli/Set_1_rs/075b.jpg","66","","","TL","s","true","s","","","","","","","","","","",""
"image-keyboard-response","134","580280","0.0-2.0-11.0-0.32","1278.6000000238419","","","stimuli/Set_1_rs/191a.jpg","67","","","TR","o","true","o","","","","","","","","","","",""
"image-keyboard-response","135","584782","0.0-2.0-11.0-0.33","936.1000000238419","","","stimuli/Set_1_rs/112a.jpg","67","","","TR","o","true","o","","","","","","","","","","",""
"image-keyboard-response","136","589285","0.0-2.0-11.0-0.34","2833.5","","","stimuli/Set_1_rs/171a.jpg","77","","","TF","n","true","n","","","","","","","","","","",""
"image-keyboard-response","137","593787","0.0-2.0-11.0-0.35","1163.1000000238419","","","stimuli/Set_1_rs/021a.jpg","67","","","TR","o","true","o","","","","","","","","","","",""
"image-keyboard-response","138","598290","0.0-2.0-11.0-0.36","804.2000000476837","","","stimuli/Set_1_rs/157a.jpg","67","","","TR","o","true","o","","","","","","","","","","",""
"image-keyboard-response","139","602793","0.0-2.0-11.0-0.37","2877.7000000476837","","","stimuli/Set_1_rs/059b.jpg","77","","","TL","s","false","n","","","","","","","","","","",""
"image-keyboard-response","140","607296","0.0-2.0-11.0-0.38","933.5999999046326","","","stimuli/Set_1_rs/153a.jpg","67","","","TR","o","true","o","","","","","","","","","","",""
"image-keyboard-response","141","611799","0.0-2.0-11.0-0.39","3439.1999999284744","","","stimuli/Set_1_rs/002a.jpg","77","","","TF","n","true","n","","","","","","","","","","",""
"image-keyboard-response","142","616302","0.0-2.0-11.0-0.40","1655.8000000715256","","","stimuli/Set_1_rs/041a.jpg","77","","","TF","n","true","n","","","","","","","","","","",""
"image-keyboard-response","143","620804","0.0-2.0-11.0-0.41","1858.1999999284744","","","stimuli/Set_1_rs/012b.jpg","67","","","TL","s","false","o","","","","","","","","","","",""
"image-keyboard-response","144","625307","0.0-2.0-11.0-0.42","1067.8999999761581","","","stimuli/Set_1_rs/083b.jpg","67","","","TL","s","false","o","","","","","","","","","","",""
"image-keyboard-response","145","629811","0.0-2.0-11.0-0.43","2276.4000000953674","","","stimuli/Set_1_rs/051a.jpg","77","","","TF","n","true","n","","","","","","","","","","",""
"image-keyboard-response","146","634315","0.0-2.0-11.0-0.44","1068.5","","","stimuli/Set_1_rs/168a.jpg","77","","","TF","n","true","n","","","","","","","","","","",""
"image-keyboard-response","147","638817","0.0-2.0-11.0-0.45","1030.2000000476837","","","stimuli/Set_1_rs/155b.jpg","67","","","TL","s","false","o","","","","","","","","","","",""
"image-keyboard-response","148","643320","0.0-2.0-11.0-0.46","1902.8999999761581","","","stimuli/Set_1_rs/045b.jpg","67","","","TL","s","false","o","","","","","","","","","","",""
"image-keyboard-response","149","647823","0.0-2.0-11.0-0.47","2520.2000000476837","","","stimuli/Set_1_rs/031b.jpg","77","","","TL","s","false","n","","","","","","","","","","",""
"image-keyboard-response","150","652324","0.0-2.0-11.0-0.48","1441.7999999523163","","","stimuli/Set_1_rs/136a.jpg","67","","","TR","o","true","o","","","","","","","","","","",""
"image-keyboard-response","151","656827","0.0-2.0-11.0-0.49","1196.0999999046326","","","stimuli/Set_1_rs/053a.jpg","77","","","TF","n","true","n","","","","","","","","","","",""
"image-keyboard-response","152","661331","0.0-2.0-11.0-0.50","1572.2000000476837","","","stimuli/Set_1_rs/061b.jpg","67","","","TL","s","false","o","","","","","","","","","","",""
"image-keyboard-response","153","665835","0.0-2.0-11.0-0.51","1275.3999999761581","","","stimuli/Set_1_rs/062a.jpg","77","","","TF","n","true","n","","","","","","","","","","",""
"image-keyboard-response","154","670338","0.0-2.0-11.0-0.52","2085","","","stimuli/Set_1_rs/009a.jpg","77","","","TR","o","false","n","","","","","","","","","","",""
"image-keyboard-response","155","674842","0.0-2.0-11.0-0.53","1277.6000000238419","","","stimuli/Set_1_rs/099b.jpg","67","","","TL","s","false","o","","","","","","","","","","",""
"image-keyboard-response","156","679345","0.0-2.0-11.0-0.54","1174.1000000238419","","","stimuli/Set_1_rs/030a.jpg","67","","","TR","o","true","o","","","","","","","","","","",""
"image-keyboard-response","157","683848","0.0-2.0-11.0-0.55","1246.8999999761581","","","stimuli/Set_1_rs/029a.jpg","67","","","TR","o","true","o","","","","","","","","","","",""
"image-keyboard-response","158","688350","0.0-2.0-11.0-0.56","3592.600000023842","","","stimuli/Set_1_rs/140b.jpg","77","","","TL","s","false","n","","","","","","","","","","",""
"image-keyboard-response","159","692852","0.0-2.0-11.0-0.57","1217.6000000238419","","","stimuli/Set_1_rs/182a.jpg","77","","","TF","n","true","n","","","","","","","","","","",""
"image-keyboard-response","160","697356","0.0-2.0-11.0-0.58","2153.7999999523163","","","stimuli/Set_1_rs/151a.jpg","77","","","TF","n","true","n","","","","","","","","","","",""
"image-keyboard-response","161","701859","0.0-2.0-11.0-0.59","1123.1000000238419","","","stimuli/Set_1_rs/142a.jpg","67","","","TR","o","true","o","","","","","","","","","","",""
"image-keyboard-response","162","706361","0.0-2.0-11.0-0.60","699.7000000476837","","","stimuli/Set_1_rs/070a.jpg","67","","","TR","o","true","o","","","","","","","","","","",""
"image-keyboard-response","163","710864","0.0-2.0-11.0-0.61","1670","","","stimuli/Set_1_rs/121a.jpg","77","","","TF","n","true","n","","","","","","","","","","",""
"image-keyboard-response","164","715366","0.0-2.0-11.0-0.62","1358.8999999761581","","","stimuli/Set_1_rs/008b.jpg","77","","","TL","s","false","n","","","","","","","","","","",""
"image-keyboard-response","165","719869","0.0-2.0-11.0-0.63","1159.6000000238419","","","stimuli/Set_1_rs/092b.jpg","77","","","TL","s","false","n","","","","","","","","","","",""
"image-keyboard-response","166","724372","0.0-2.0-11.0-0.64","1106.1000000238419","","","stimuli/Set_1_rs/192a.jpg","67","","","TR","o","true","o","","","","","","","","","","",""
"image-keyboard-response","167","728875","0.0-2.0-11.0-0.65","730.1000000238419","","","stimuli/Set_1_rs/147a.jpg","67","","","TR","o","true","o","","","","","","","","","","",""
"image-keyboard-response","168","733378","0.0-2.0-11.0-0.66","1170.5999999046326","","","stimuli/Set_1_rs/032a.jpg","77","","","TF","n","true","n","","","","","","","","","","",""
"image-keyboard-response","169","737881","0.0-2.0-11.0-0.67","1436.7999999523163","","","stimuli/Set_1_rs/128b.jpg","67","","","TL","s","false","o","","","","","","","","","","",""
"image-keyboard-response","170","742384","0.0-2.0-11.0-0.68","3029.7000000476837","","","stimuli/Set_1_rs/186a.jpg","66","","","TF","n","false","s","","","","","","","","","","",""
"image-keyboard-response","171","746887","0.0-2.0-11.0-0.69","878.2999999523163","","","stimuli/Set_1_rs/109a.jpg","67","","","TR","o","true","o","","","","","","","","","","",""
"image-keyboard-response","172","751390","0.0-2.0-11.0-0.70","1655.5","","","stimuli/Set_1_rs/160a.jpg","77","","","TF","n","true","n","","","","","","","","","","",""
"image-keyboard-response","173","755893","0.0-2.0-11.0-0.71","1263.2999999523163","","","stimuli/Set_1_rs/086a.jpg","67","","","TR","o","true","o","","","","","","","","","","",""
"image-keyboard-response","174","760395","0.0-2.0-11.0-0.72","922","","","stimuli/Set_1_rs/023b.jpg","67","","","TL","s","false","o","","","","","","","","","","",""
"image-keyboard-response","175","764898","0.0-2.0-11.0-0.73","1411.1000000238419","","","stimuli/Set_1_rs/114b.jpg","67","","","TL","s","false","o","","","","","","","","","","",""
"image-keyboard-response","176","769401","0.0-2.0-11.0-0.74","907.5","","","stimuli/Set_1_rs/033b.jpg","67","","","TL","s","false","o","","","","","","","","","","",""
"image-keyboard-response","177","773903","0.0-2.0-11.0-0.75","838.2999999523163","","","stimuli/Set_1_rs/010a.jpg","67","","","TR","o","true","o","","","","","","","","","","",""
"image-keyboard-response","178","778406","0.0-2.0-11.0-0.76","830.6000000238419","","","stimuli/Set_1_rs/150a.jpg","67","","","TR","o","true","o","","","","","","","","","","",""
"image-keyboard-response","179","782910","0.0-2.0-11.0-0.77","887.2000000476837","","","stimuli/Set_1_rs/038a.jpg","67","","","TR","o","true","o","","","","","","","","","","",""
"image-keyboard-response","180","787413","0.0-2.0-11.0-0.78","2047.8000000715256","","","stimuli/Set_1_rs/022b.jpg","66","","","TL","s","true","s","","","","","","","","","","",""
"image-keyboard-response","181","791916","0.0-2.0-11.0-0.79","969","","","stimuli/Set_1_rs/018a.jpg","77","","","TF","n","true","n","","","","","","","","","","",""
"image-keyboard-response","182","796418","0.0-2.0-11.0-0.80","914.8000000715256","","","stimuli/Set_1_rs/081a.jpg","77","","","TF","n","true","n","","","","","","","","","","",""
"image-keyboard-response","183","800921","0.0-2.0-11.0-0.81","1371.7000000476837","","","stimuli/Set_1_rs/107a.jpg","67","","","TR","o","true","o","","","","","","","","","","",""
"image-keyboard-response","184","805425","0.0-2.0-11.0-0.82","819.5","","","stimuli/Set_1_rs/101b.jpg","67","","","TL","s","false","o","","","","","","","","","","",""
"image-keyboard-response","185","809929","0.0-2.0-11.0-0.83","1052","","","stimuli/Set_1_rs/178b.jpg","67","","","TL","s","false","o","","","","","","","","","","",""
"image-keyboard-response","186","814431","0.0-2.0-11.0-0.84","964.7999999523163","","","stimuli/Set_1_rs/103b.jpg","77","","","TL","s","false","n","","","","","","","","","","",""
"image-keyboard-response","187","818934","0.0-2.0-11.0-0.85","846","","","stimuli/Set_1_rs/116b.jpg","67","","","TL","s","false","o","","","","","","","","","","",""
"image-keyboard-response","188","823436","0.0-2.0-11.0-0.86","984.1000000238419","","","stimuli/Set_1_rs/122a.jpg","77","","","TF","n","true","n","","","","","","","","","","",""
"image-keyboard-response","189","827940","0.0-2.0-11.0-0.87","800.8999999761581","","","stimuli/Set_1_rs/044a.jpg","67","","","TR","o","true","o","","","","","","","","","","",""
"image-keyboard-response","190","832443","0.0-2.0-11.0-0.88","729.3999999761581","","","stimuli/Set_1_rs/049a.jpg","67","","","TR","o","true","o","","","","","","","","","","",""
"image-keyboard-response","191","836945","0.0-2.0-11.0-0.89","834.3999999761581","","","stimuli/Set_1_rs/118a.jpg","67","","","TR","o","true","o","","","","","","","","","","",""
"image-keyboard-response","192","841448","0.0-2.0-11.0-0.90","811.7000000476837","","","stimuli/Set_1_rs/040a.jpg","67","","","TR","o","true","o","","","","","","","","","","",""
"image-keyboard-response","193","845950","0.0-2.0-11.0-0.91","838.7999999523163","","","stimuli/Set_1_rs/011b.jpg","67","","","TL","s","false","o","","","","","","","","","","",""
"image-keyboard-response","194","850454","0.0-2.0-11.0-0.92","957.7999999523163","","","stimuli/Set_1_rs/087a.jpg","77","","","TF","n","true","n","","","","","","","","","","",""
"image-keyboard-response","195","854958","0.0-2.0-11.0-0.93","983.1000000238419","","","stimuli/Set_1_rs/063a.jpg","67","","","TR","o","true","o","","","","","","","","","","",""
"image-keyboard-response","196","859462","0.0-2.0-11.0-0.94","958.8999999761581","","","stimuli/Set_1_rs/098b.jpg","67","","","TL","s","false","o","","","","","","","","","","",""
"image-keyboard-response","197","863966","0.0-2.0-11.0-0.95","981.8999999761581","","","stimuli/Set_1_rs/058a.jpg","67","","","TR","o","true","o","","","","","","","","","","",""
"html-keyboard-response","198","882001","0.0-3.0","18031.699999928474","","","<p>Vége a feladatnak. Köszönjük a részvételt!</p>","77","","","","","","","33","0","1","26","2","6","2","4","28","0.9117647058823529","-0.058823529411764705"
