"trial_type","trial_index","time_elapsed","internal_node_id","rt","responses","success","stimulus","key_press","cond","enc_response","condition","correct_response","correct","rec_response","targ_old","targ_sim","targ_new","lure_old","lure_sim","lure_new","foil_old","foil_sim","foil_new","recognition_ratio","ldi"
"pavlovia","0","3","0.0-0.0","","","","","","","","","","","","","","","","","","","","","",""
"survey-multi-choice","1","106553","0.0-1.0","106548.09999996424","{""Q0"":""Igen"",""Q1"":""Igen""}","","","","","","","","","","","","","","","","","","","",""
"survey-text","2","112572","0.0-2.0-0.0","6017.5","{""Q0"":""085639""}","","","","","","","","","","","","","","","","","","","",""
"fullscreen","3","114382","0.0-2.0-1.0","","","true","","","","","","","","","","","","","","","","","","",""
"html-keyboard-response","4","129192","0.0-2.0-2.0","14808.399999976158","","","<p>Üdvözöljük! Ez a feladat két részből áll, és összesen 10-15 percet vesz igénybe.</p>","71","","","","","","","","","","","","","","","","",""
"html-keyboard-response","5","159207","0.0-2.0-3.0-0.0","30013","","","<p>Az első részben tárgyakat lát majd a képernyőn, egymás után fognak megjelenni.<br>Az Ön feladata eldönteni, hogy a tárgyak <i>beltéri vagy kültéri</i> tárgyak-e.</p>						   <p>Amennyiben a tárgyat általában beltéren látja, nyomja le a <b>C</b> billentyűt. Amennyiben a tárgyat általában kültéren látja, nyomja le az <b>M</b> billentyűt.</p>						   <p>Ebben a feladatban nincsen mindig egyértelműen jó megoldás. Válaszoljon legjobb tudása szerint. A válaszadásra 2 másodperce lesz.","32","","","","","","","","","","","","","","","","",""
"html-keyboard-response","6","161209","0.0-2.0-3.0-1.0","null","","","<p>Kezdődik a gyakorlás...</p>","null","","","","","","","","","","","","","","","","",""
"image-keyboard-response","7","163212","0.0-2.0-4.0-0.0","1819.199999988079","","","stimuli/Set_2_rs/165b.jpg","77","-","outdoor","","","","","","","","","","","","","","",""
"html-keyboard-response","8","166167","0.0-2.0-4.0-1.0","2452.600000023842","","","<p>Az Ön válasza:</p><p>Kültéri.</p>","32","","","","","","","","","","","","","","","","",""
"image-keyboard-response","9","168169","0.0-2.0-4.0-0.1","1213.9000000357628","","","stimuli/Set_2_rs/034a.jpg","67","-","indoor","","","","","","","","","","","","","","",""
"html-keyboard-response","10","169223","0.0-2.0-4.0-1.1","552.0999999642372","","","<p>Az Ön válasza:</p><p>Beltéri.</p>","32","","","","","","","","","","","","","","","","",""
"image-keyboard-response","11","171225","0.0-2.0-4.0-0.2","1438.4000000357628","","","stimuli/Set_2_rs/049a.jpg","77","SL","outdoor","","","","","","","","","","","","","","",""
"html-keyboard-response","12","172455","0.0-2.0-4.0-1.2","728","","","<p>Az Ön válasza:</p><p>Kültéri.</p>","32","","","","","","","","","","","","","","","","",""
"image-keyboard-response","13","174457","0.0-2.0-4.0-0.3","1055","","","stimuli/Set_2_rs/028a.jpg","67","SR","indoor","","","","","","","","","","","","","","",""
"html-keyboard-response","14","175351","0.0-2.0-4.0-1.3","392.39999997615814","","","<p>Az Ön válasza:</p><p>Beltéri.</p>","32","","","","","","","","","","","","","","","","",""
"image-keyboard-response","15","177353","0.0-2.0-4.0-0.4","1086.300000011921","","","stimuli/Set_2_rs/135a.jpg","67","SL","indoor","","","","","","","","","","","","","","",""
"html-keyboard-response","16","178327","0.0-2.0-4.0-1.4","471.39999997615814","","","<p>Az Ön válasza:</p><p>Beltéri.</p>","32","","","","","","","","","","","","","","","","",""
"image-keyboard-response","17","180329","0.0-2.0-4.0-0.5","1742.7000000476837","","","stimuli/Set_2_rs/137a.jpg","67","SR","indoor","","","","","","","","","","","","","","",""
"html-keyboard-response","18","181591","0.0-2.0-4.0-1.5","760.1000000238419","","","<p>Az Ön válasza:</p><p>Beltéri.</p>","32","","","","","","","","","","","","","","","","",""
"html-keyboard-response","19","189863","0.0-2.0-5.0-0.0","8271.300000011921","","","<p>Ez volt a gyakorlás. A feladat következik. A feladat alatt már nem kap visszajelzést.</p>","32","","","","","","","","","","","","","","","","",""
"html-keyboard-response","20","191865","0.0-2.0-5.0-1.0","null","","","<p>Kezdődik a feladat...</p>","null","","","","","","","","","","","","","","","","",""
"image-keyboard-response","21","194367","0.0-2.0-6.0-0.0","2300","","","stimuli/Set_1_rs/157a.jpg","77","","outdoor","SR","","","","","","","","","","","","","",""
"image-keyboard-response","22","196869","0.0-2.0-6.0-0.1","1206.3999999761581","","","stimuli/Set_1_rs/009a.jpg","67","","indoor","SR","","","","","","","","","","","","","",""
"image-keyboard-response","23","199371","0.0-2.0-6.0-0.2","1776.3999999761581","","","stimuli/Set_1_rs/059a.jpg","67","","indoor","SL","","","","","","","","","","","","","",""
"image-keyboard-response","24","201872","0.0-2.0-6.0-0.3","1114.6000000238419","","","stimuli/Set_1_rs/024a.jpg","77","","outdoor","SR","","","","","","","","","","","","","",""
"image-keyboard-response","25","204375","0.0-2.0-6.0-0.4","1508.0999999642372","","","stimuli/Set_1_rs/101a.jpg","77","","outdoor","SL","","","","","","","","","","","","","",""
"image-keyboard-response","26","206877","0.0-2.0-6.0-0.5","1150.2999999523163","","","stimuli/Set_1_rs/137a.jpg","77","","outdoor","SR","","","","","","","","","","","","","",""
"image-keyboard-response","27","209379","0.0-2.0-6.0-0.6","1352.7999999523163","","","stimuli/Set_1_rs/011a.jpg","67","","indoor","SL","","","","","","","","","","","","","",""
"image-keyboard-response","28","211881","0.0-2.0-6.0-0.7","1410.5","","","stimuli/Set_1_rs/128a.jpg","67","","indoor","SL","","","","","","","","","","","","","",""
"image-keyboard-response","29","214383","0.0-2.0-6.0-0.8","1179.7999999523163","","","stimuli/Set_1_rs/083a.jpg","67","","indoor","SL","","","","","","","","","","","","","",""
"image-keyboard-response","30","216886","0.0-2.0-6.0-0.9","1574","","","stimuli/Set_1_rs/136a.jpg","67","","indoor","SR","","","","","","","","","","","","","",""
"image-keyboard-response","31","219387","0.0-2.0-6.0-0.10","1103.5","","","stimuli/Set_1_rs/103a.jpg","67","","indoor","SL","","","","","","","","","","","","","",""
"image-keyboard-response","32","221889","0.0-2.0-6.0-0.11","1114.300000011921","","","stimuli/Set_1_rs/086a.jpg","67","","indoor","SR","","","","","","","","","","","","","",""
"image-keyboard-response","33","224392","0.0-2.0-6.0-0.12","1603.5999999642372","","","stimuli/Set_1_rs/099a.jpg","77","","outdoor","SL","","","","","","","","","","","","","",""
"image-keyboard-response","34","226894","0.0-2.0-6.0-0.13","1581.5","","","stimuli/Set_1_rs/178a.jpg","67","","indoor","SL","","","","","","","","","","","","","",""
"image-keyboard-response","35","229397","0.0-2.0-6.0-0.14","1335.3999999761581","","","stimuli/Set_1_rs/134a.jpg","67","","indoor","SL","","","","","","","","","","","","","",""
"image-keyboard-response","36","231898","0.0-2.0-6.0-0.15","1136.7999999523163","","","stimuli/Set_1_rs/156a.jpg","67","","indoor","SL","","","","","","","","","","","","","",""
"image-keyboard-response","37","234400","0.0-2.0-6.0-0.16","1050.5","","","stimuli/Set_1_rs/054a.jpg","77","","outdoor","SR","","","","","","","","","","","","","",""
"image-keyboard-response","38","236902","0.0-2.0-6.0-0.17","1189.1000000238419","","","stimuli/Set_1_rs/092a.jpg","77","","outdoor","SL","","","","","","","","","","","","","",""
"image-keyboard-response","39","239404","0.0-2.0-6.0-0.18","2031.3999999761581","","","stimuli/Set_1_rs/031a.jpg","67","","indoor","SL","","","","","","","","","","","","","",""
"image-keyboard-response","40","241905","0.0-2.0-6.0-0.19","1161.5","","","stimuli/Set_1_rs/013a.jpg","67","","indoor","SL","","","","","","","","","","","","","",""
"image-keyboard-response","41","244408","0.0-2.0-6.0-0.20","1699.1000000238419","","","stimuli/Set_1_rs/075a.jpg","77","","outdoor","SL","","","","","","","","","","","","","",""
"image-keyboard-response","42","246910","0.0-2.0-6.0-0.21","1852.9000000357628","","","stimuli/Set_1_rs/150a.jpg","67","","indoor","SR","","","","","","","","","","","","","",""
"image-keyboard-response","43","249412","0.0-2.0-6.0-0.22","999","","","stimuli/Set_1_rs/094a.jpg","67","","indoor","SL","","","","","","","","","","","","","",""
"image-keyboard-response","44","251914","0.0-2.0-6.0-0.23","1200.800000011921","","","stimuli/Set_1_rs/090a.jpg","77","","outdoor","SL","","","","","","","","","","","","","",""
"image-keyboard-response","45","254416","0.0-2.0-6.0-0.24","1450.6000000238419","","","stimuli/Set_1_rs/192a.jpg","67","","indoor","SR","","","","","","","","","","","","","",""
"image-keyboard-response","46","256917","0.0-2.0-6.0-0.25","1717","","","stimuli/Set_1_rs/116a.jpg","67","","indoor","SL","","","","","","","","","","","","","",""
"image-keyboard-response","47","259419","0.0-2.0-6.0-0.26","1039.7000000476837","","","stimuli/Set_1_rs/044a.jpg","67","","indoor","SR","","","","","","","","","","","","","",""
"image-keyboard-response","48","261921","0.0-2.0-6.0-0.27","1561.9000000357628","","","stimuli/Set_1_rs/114a.jpg","67","","indoor","SL","","","","","","","","","","","","","",""
"image-keyboard-response","49","264424","0.0-2.0-6.0-0.28","null","","","stimuli/Set_1_rs/112a.jpg","null","","null","SR","","","","","","","","","","","","","",""
"image-keyboard-response","50","266925","0.0-2.0-6.0-0.29","1165.300000011921","","","stimuli/Set_1_rs/052a.jpg","67","","indoor","SL","","","","","","","","","","","","","",""
"image-keyboard-response","51","269427","0.0-2.0-6.0-0.30","2231.699999988079","","","stimuli/Set_1_rs/058a.jpg","67","","indoor","SR","","","","","","","","","","","","","",""
"image-keyboard-response","52","271928","0.0-2.0-6.0-0.31","1362.0999999642372","","","stimuli/Set_1_rs/023a.jpg","77","","outdoor","SL","","","","","","","","","","","","","",""
"image-keyboard-response","53","274431","0.0-2.0-6.0-0.32","1660.0999999642372","","","stimuli/Set_1_rs/030a.jpg","77","","outdoor","SR","","","","","","","","","","","","","",""
"image-keyboard-response","54","276933","0.0-2.0-6.0-0.33","1078.199999988079","","","stimuli/Set_1_rs/091a.jpg","77","","outdoor","SR","","","","","","","","","","","","","",""
"image-keyboard-response","55","279435","0.0-2.0-6.0-0.34","1472.1000000238419","","","stimuli/Set_1_rs/147a.jpg","77","","outdoor","SR","","","","","","","","","","","","","",""
"image-keyboard-response","56","281937","0.0-2.0-6.0-0.35","1050.199999988079","","","stimuli/Set_1_rs/063a.jpg","77","","outdoor","SR","","","","","","","","","","","","","",""
"image-keyboard-response","57","284439","0.0-2.0-6.0-0.36","1027.5","","","stimuli/Set_1_rs/040a.jpg","77","","outdoor","SR","","","","","","","","","","","","","",""
"image-keyboard-response","58","286941","0.0-2.0-6.0-0.37","877.5","","","stimuli/Set_1_rs/038a.jpg","67","","indoor","SR","","","","","","","","","","","","","",""
"image-keyboard-response","59","289444","0.0-2.0-6.0-0.38","1207.3999999761581","","","stimuli/Set_1_rs/100a.jpg","67","","indoor","SL","","","","","","","","","","","","","",""
"image-keyboard-response","60","291945","0.0-2.0-6.0-0.39","1473.5","","","stimuli/Set_1_rs/109a.jpg","67","","indoor","SR","","","","","","","","","","","","","",""
"image-keyboard-response","61","294448","0.0-2.0-6.0-0.40","1290.6000000238419","","","stimuli/Set_1_rs/191a.jpg","67","","indoor","SR","","","","","","","","","","","","","",""
"image-keyboard-response","62","296950","0.0-2.0-6.0-0.41","1477.199999988079","","","stimuli/Set_1_rs/061a.jpg","67","","indoor","SL","","","","","","","","","","","","","",""
"image-keyboard-response","63","299451","0.0-2.0-6.0-0.42","1359.2000000476837","","","stimuli/Set_1_rs/162a.jpg","67","","indoor","SR","","","","","","","","","","","","","",""
"image-keyboard-response","64","301953","0.0-2.0-6.0-0.43","1129.9000000357628","","","stimuli/Set_1_rs/046a.jpg","77","","outdoor","SR","","","","","","","","","","","","","",""
"image-keyboard-response","65","304456","0.0-2.0-6.0-0.44","995.3999999761581","","","stimuli/Set_1_rs/155a.jpg","77","","outdoor","SL","","","","","","","","","","","","","",""
"image-keyboard-response","66","306957","0.0-2.0-6.0-0.45","1389.1000000238419","","","stimuli/Set_1_rs/010a.jpg","67","","indoor","SR","","","","","","","","","","","","","",""
"image-keyboard-response","67","309459","0.0-2.0-6.0-0.46","1463.4000000357628","","","stimuli/Set_1_rs/142a.jpg","77","","outdoor","SR","","","","","","","","","","","","","",""
"image-keyboard-response","68","311960","0.0-2.0-6.0-0.47","1490","","","stimuli/Set_1_rs/045a.jpg","67","","indoor","SL","","","","","","","","","","","","","",""
"image-keyboard-response","69","314463","0.0-2.0-6.0-0.48","1115.7000000476837","","","stimuli/Set_1_rs/070a.jpg","77","","outdoor","SR","","","","","","","","","","","","","",""
"image-keyboard-response","70","316965","0.0-2.0-6.0-0.49","1318.2999999523163","","","stimuli/Set_1_rs/022a.jpg","67","","indoor","SL","","","","","","","","","","","","","",""
"image-keyboard-response","71","319467","0.0-2.0-6.0-0.50","1455.699999988079","","","stimuli/Set_1_rs/021a.jpg","67","","indoor","SR","","","","","","","","","","","","","",""
"image-keyboard-response","72","321969","0.0-2.0-6.0-0.51","1161.800000011921","","","stimuli/Set_1_rs/098a.jpg","67","","indoor","SL","","","","","","","","","","","","","",""
"image-keyboard-response","73","324471","0.0-2.0-6.0-0.52","899.0999999642372","","","stimuli/Set_1_rs/008a.jpg","67","","indoor","SL","","","","","","","","","","","","","",""
"image-keyboard-response","74","326973","0.0-2.0-6.0-0.53","1181.4000000357628","","","stimuli/Set_1_rs/012a.jpg","67","","indoor","SL","","","","","","","","","","","","","",""
"image-keyboard-response","75","329475","0.0-2.0-6.0-0.54","1079.8999999761581","","","stimuli/Set_1_rs/153a.jpg","67","","indoor","SR","","","","","","","","","","","","","",""
"image-keyboard-response","76","331976","0.0-2.0-6.0-0.55","1201.699999988079","","","stimuli/Set_1_rs/068a.jpg","77","","outdoor","SL","","","","","","","","","","","","","",""
"image-keyboard-response","77","334478","0.0-2.0-6.0-0.56","875.7999999523163","","","stimuli/Set_1_rs/140a.jpg","67","","indoor","SL","","","","","","","","","","","","","",""
"image-keyboard-response","78","336980","0.0-2.0-6.0-0.57","1718.199999988079","","","stimuli/Set_1_rs/029a.jpg","67","","indoor","SR","","","","","","","","","","","","","",""
"image-keyboard-response","79","339481","0.0-2.0-6.0-0.58","816.4000000357628","","","stimuli/Set_1_rs/049a.jpg","67","","indoor","SR","","","","","","","","","","","","","",""
"image-keyboard-response","80","341983","0.0-2.0-6.0-0.59","795","","","stimuli/Set_1_rs/180a.jpg","67","","indoor","SR","","","","","","","","","","","","","",""
"image-keyboard-response","81","344485","0.0-2.0-6.0-0.60","1108.699999988079","","","stimuli/Set_1_rs/033a.jpg","67","","indoor","SL","","","","","","","","","","","","","",""
"image-keyboard-response","82","346988","0.0-2.0-6.0-0.61","1663","","","stimuli/Set_1_rs/119a.jpg","67","","indoor","SL","","","","","","","","","","","","","",""
"image-keyboard-response","83","349489","0.0-2.0-6.0-0.62","1240.699999988079","","","stimuli/Set_1_rs/118a.jpg","67","","indoor","SR","","","","","","","","","","","","","",""
"image-keyboard-response","84","351990","0.0-2.0-6.0-0.63","883.3000000119209","","","stimuli/Set_1_rs/107a.jpg","67","","indoor","SR","","","","","","","","","","","","","",""
"html-keyboard-response","85","356581","0.0-2.0-7.0","4590.299999952316","","","<p>Vége a feladat első részének. Tartson egy pár perces szünetet.</p>","32","","","","","","","","","","","","","","","","",""
"html-keyboard-response","86","371589","0.0-2.0-8.0-0.0","15007.199999988079","","","<p>A következőkben ismét tárgyak jelennek majd meg a képernyőn, egymás után.<br>Az Ön feladata eldönteni, látta-e már ezeket a tárgyakat a vizsgálat első felében.</p>		        			<p>Amennyiben pontosan ugyanezt a tárgyat látta (a tárgy <i>régi</i>), nyomja le a <b>C</b> billentyűt.</p>		        			<p>Amennyiben hasonló tárgyat látott (a tárgy <i>hasonló</i>), nyomja le a <b>B</b> billentyűt.</p>		        			<p>Amennyiben nem látta ezt a tárgyat az első részben (a tárgy <i>új</i>), nyomja le az <b>M</b> billentyűt.</p>","32","","","","","","","","","","","","","","","","",""
"html-keyboard-response","87","373591","0.0-2.0-8.0-1.0","null","","","<p>Kezdődik a gyakorlás...</p>","null","","","","","","","","","","","","","","","","",""
"image-keyboard-response","88","377595","0.0-2.0-9.0-0.0","1371.6000000238419","","","stimuli/Set_2_rs/049b.jpg","77","","","TL","l","false","n","","","","","","","","","","",""
"html-keyboard-response","89","385829","0.0-2.0-9.0-1.0","8232.800000011921","","","<p>A helyes válasz: Hasonló.</p><p>Az Ön válasza: Új.</p>","32","","","","","","","","","","","","","","","","",""
"image-keyboard-response","90","389832","0.0-2.0-9.0-0.1","1917.7999999523163","","","stimuli/Set_2_rs/018b.jpg","77","","","TF","n","true","n","","","","","","","","","","",""
"html-keyboard-response","91","392133","0.0-2.0-9.0-1.1","2300.099999964237","","","<p>A helyes válasz: Új.</p><p>Az Ön válasza: Új.</p>","32","","","","","","","","","","","","","","","","",""
"image-keyboard-response","92","396136","0.0-2.0-9.0-0.2","2590","","","stimuli/Set_2_rs/028a.jpg","66","","","TR","o","false","s","","","","","","","","","","",""
"html-keyboard-response","93","403093","0.0-2.0-9.0-1.2","6956","","","<p>A helyes válasz: Régi.</p><p>Az Ön válasza: Hasonló.</p>","32","","","","","","","","","","","","","","","","",""
"image-keyboard-response","94","407096","0.0-2.0-9.0-0.3","2110","","","stimuli/Set_2_rs/137a.jpg","67","","","TR","o","true","o","","","","","","","","","","",""
"html-keyboard-response","95","410853","0.0-2.0-9.0-1.3","3755.800000011921","","","<p>A helyes válasz: Régi.</p><p>Az Ön válasza: Régi.</p>","32","","","","","","","","","","","","","","","","",""
"image-keyboard-response","96","414856","0.0-2.0-9.0-0.4","1373.8999999761581","","","stimuli/Set_2_rs/135b.jpg","67","","","TL","l","false","o","","","","","","","","","","",""
"html-keyboard-response","97","451077","0.0-2.0-9.0-1.4","36220","","","<p>A helyes válasz: Hasonló.</p><p>Az Ön válasza: Régi.</p>","32","","","","","","","","","","","","","","","","",""
"image-keyboard-response","98","455081","0.0-2.0-9.0-0.5","1436.8999999761581","","","stimuli/Set_2_rs/019a.jpg","77","","","TF","n","true","n","","","","","","","","","","",""
"html-keyboard-response","99","456837","0.0-2.0-9.0-1.5","1754.5","","","<p>A helyes válasz: Új.</p><p>Az Ön válasza: Új.</p>","32","","","","","","","","","","","","","","","","",""
"html-keyboard-response","100","462901","0.0-2.0-10.0-0.0","6063.299999952316","","","<p>Ez volt a gyakorlás. A feladat következik. A feladat alatt már nem kap visszajelzést.</p>","32","","","","","","","","","","","","","","","","",""
"html-keyboard-response","101","464902","0.0-2.0-10.0-1.0","null","","","<p>Kezdődik a feladat...</p>","null","","","","","","","","","","","","","","","","",""
"image-keyboard-response","102","469405","0.0-2.0-11.0-0.0","2876.400000035763","","","stimuli/Set_1_rs/181a.jpg","77","","","TF","n","true","n","","","","","","","","","","",""
"image-keyboard-response","103","473908","0.0-2.0-11.0-0.1","1108.8999999761581","","","stimuli/Set_1_rs/152a.jpg","77","","","TF","n","true","n","","","","","","","","","","",""
"image-keyboard-response","104","478411","0.0-2.0-11.0-0.2","1421.8999999761581","","","stimuli/Set_1_rs/090b.jpg","67","","","TL","s","false","o","","","","","","","","","","",""
"image-keyboard-response","105","482915","0.0-2.0-11.0-0.3","1110.5","","","stimuli/Set_1_rs/126a.jpg","77","","","TF","n","true","n","","","","","","","","","","",""
"image-keyboard-response","106","487418","0.0-2.0-11.0-0.4","1423","","","stimuli/Set_1_rs/068b.jpg","67","","","TL","s","false","o","","","","","","","","","","",""
"image-keyboard-response","107","491921","0.0-2.0-11.0-0.5","1000.0999999642372","","","stimuli/Set_1_rs/054a.jpg","67","","","TR","o","true","o","","","","","","","","","","",""
"image-keyboard-response","108","496425","0.0-2.0-11.0-0.6","2224.7000000476837","","","stimuli/Set_1_rs/162a.jpg","67","","","TR","o","true","o","","","","","","","","","","",""
"image-keyboard-response","109","500928","0.0-2.0-11.0-0.7","1928.8999999761581","","","stimuli/Set_1_rs/019a.jpg","77","","","TF","n","true","n","","","","","","","","","","",""
"image-keyboard-response","110","505430","0.0-2.0-11.0-0.8","1554.1000000238419","","","stimuli/Set_1_rs/119b.jpg","67","","","TL","s","false","o","","","","","","","","","","",""
"image-keyboard-response","111","509933","0.0-2.0-11.0-0.9","1003.3999999761581","","","stimuli/Set_1_rs/052b.jpg","67","","","TL","s","false","o","","","","","","","","","","",""
"image-keyboard-response","112","514436","0.0-2.0-11.0-0.10","1652.699999988079","","","stimuli/Set_1_rs/135a.jpg","77","","","TF","n","true","n","","","","","","","","","","",""
"image-keyboard-response","113","518938","0.0-2.0-11.0-0.11","1454.3999999761581","","","stimuli/Set_1_rs/004a.jpg","77","","","TF","n","true","n","","","","","","","","","","",""
"image-keyboard-response","114","523441","0.0-2.0-11.0-0.12","1367.7999999523163","","","stimuli/Set_1_rs/072a.jpg","77","","","TF","n","true","n","","","","","","","","","","",""
"image-keyboard-response","115","527944","0.0-2.0-11.0-0.13","1473","","","stimuli/Set_1_rs/028a.jpg","77","","","TF","n","true","n","","","","","","","","","","",""
"image-keyboard-response","116","532447","0.0-2.0-11.0-0.14","1690.199999988079","","","stimuli/Set_1_rs/091a.jpg","67","","","TR","o","true","o","","","","","","","","","","",""
"image-keyboard-response","117","536949","0.0-2.0-11.0-0.15","1298.8999999761581","","","stimuli/Set_1_rs/108a.jpg","77","","","TF","n","true","n","","","","","","","","","","",""
"image-keyboard-response","118","541452","0.0-2.0-11.0-0.16","3052.600000023842","","","stimuli/Set_1_rs/146a.jpg","77","","","TF","n","true","n","","","","","","","","","","",""
"image-keyboard-response","119","545955","0.0-2.0-11.0-0.17","2277.800000011921","","","stimuli/Set_1_rs/013b.jpg","66","","","TL","s","true","s","","","","","","","","","","",""
"image-keyboard-response","120","550458","0.0-2.0-11.0-0.18","1550.5","","","stimuli/Set_1_rs/141a.jpg","77","","","TF","n","true","n","","","","","","","","","","",""
"image-keyboard-response","121","554961","0.0-2.0-11.0-0.19","2007.5999999642372","","","stimuli/Set_1_rs/156b.jpg","67","","","TL","s","false","o","","","","","","","","","","",""
"image-keyboard-response","122","559463","0.0-2.0-11.0-0.20","1281","","","stimuli/Set_1_rs/024a.jpg","67","","","TR","o","true","o","","","","","","","","","","",""
"image-keyboard-response","123","563966","0.0-2.0-11.0-0.21","1210.2000000476837","","","stimuli/Set_1_rs/046a.jpg","67","","","TR","o","true","o","","","","","","","","","","",""
"image-keyboard-response","124","568469","0.0-2.0-11.0-0.22","1347.2000000476837","","","stimuli/Set_1_rs/100b.jpg","67","","","TL","s","false","o","","","","","","","","","","",""
"image-keyboard-response","125","572972","0.0-2.0-11.0-0.23","1356.3999999761581","","","stimuli/Set_1_rs/080a.jpg","77","","","TF","n","true","n","","","","","","","","","","",""
"image-keyboard-response","126","577476","0.0-2.0-11.0-0.24","1205","","","stimuli/Set_1_rs/094b.jpg","67","","","TL","s","false","o","","","","","","","","","","",""
"image-keyboard-response","127","581979","0.0-2.0-11.0-0.25","1293.699999988079","","","stimuli/Set_1_rs/190a.jpg","77","","","TF","n","true","n","","","","","","","","","","",""
"image-keyboard-response","128","586481","0.0-2.0-11.0-0.26","1318.5999999642372","","","stimuli/Set_1_rs/137a.jpg","67","","","TR","o","true","o","","","","","","","","","","",""
"image-keyboard-response","129","590984","0.0-2.0-11.0-0.27","863.8999999761581","","","stimuli/Set_1_rs/180a.jpg","67","","","TR","o","true","o","","","","","","","","","","",""
"image-keyboard-response","130","595488","0.0-2.0-11.0-0.28","1225.0999999642372","","","stimuli/Set_1_rs/134b.jpg","67","","","TL","s","false","o","","","","","","","","","","",""
"image-keyboard-response","131","599990","0.0-2.0-11.0-0.29","1233.800000011921","","","stimuli/Set_1_rs/088a.jpg","77","","","TF","n","true","n","","","","","","","","","","",""
"image-keyboard-response","132","604494","0.0-2.0-11.0-0.30","1034.699999988079","","","stimuli/Set_1_rs/165a.jpg","77","","","TF","n","true","n","","","","","","","","","","",""
"image-keyboard-response","133","608998","0.0-2.0-11.0-0.31","1345.9000000357628","","","stimuli/Set_1_rs/075b.jpg","77","","","TL","s","false","n","","","","","","","","","","",""
"image-keyboard-response","134","613501","0.0-2.0-11.0-0.32","1179.2000000476837","","","stimuli/Set_1_rs/191a.jpg","67","","","TR","o","true","o","","","","","","","","","","",""
"image-keyboard-response","135","618004","0.0-2.0-11.0-0.33","2820.5","","","stimuli/Set_1_rs/112a.jpg","66","","","TR","o","false","s","","","","","","","","","","",""
"image-keyboard-response","136","622507","0.0-2.0-11.0-0.34","1436.8999999761581","","","stimuli/Set_1_rs/171a.jpg","77","","","TF","n","true","n","","","","","","","","","","",""
"image-keyboard-response","137","627010","0.0-2.0-11.0-0.35","1013.8999999761581","","","stimuli/Set_1_rs/021a.jpg","67","","","TR","o","true","o","","","","","","","","","","",""
"image-keyboard-response","138","631513","0.0-2.0-11.0-0.36","1006.5","","","stimuli/Set_1_rs/157a.jpg","67","","","TR","o","true","o","","","","","","","","","","",""
"image-keyboard-response","139","636017","0.0-2.0-11.0-0.37","1415.2999999523163","","","stimuli/Set_1_rs/059b.jpg","67","","","TL","s","false","o","","","","","","","","","","",""
"image-keyboard-response","140","640520","0.0-2.0-11.0-0.38","1232.0999999642372","","","stimuli/Set_1_rs/153a.jpg","67","","","TR","o","true","o","","","","","","","","","","",""
"image-keyboard-response","141","645023","0.0-2.0-11.0-0.39","1592.8999999761581","","","stimuli/Set_1_rs/002a.jpg","77","","","TF","n","true","n","","","","","","","","","","",""
"image-keyboard-response","142","649526","0.0-2.0-11.0-0.40","1633.4000000357628","","","stimuli/Set_1_rs/041a.jpg","77","","","TF","n","true","n","","","","","","","","","","",""
"image-keyboard-response","143","654029","0.0-2.0-11.0-0.41","1066.5","","","stimuli/Set_1_rs/012b.jpg","67","","","TL","s","false","o","","","","","","","","","","",""
"image-keyboard-response","144","658531","0.0-2.0-11.0-0.42","836.0999999642372","","","stimuli/Set_1_rs/083b.jpg","67","","","TL","s","false","o","","","","","","","","","","",""
"image-keyboard-response","145","663034","0.0-2.0-11.0-0.43","1501.199999988079","","","stimuli/Set_1_rs/051a.jpg","77","","","TF","n","true","n","","","","","","","","","","",""
"image-keyboard-response","146","667537","0.0-2.0-11.0-0.44","1143.0999999642372","","","stimuli/Set_1_rs/168a.jpg","77","","","TF","n","true","n","","","","","","","","","","",""
"image-keyboard-response","147","672040","0.0-2.0-11.0-0.45","976.1999999880791","","","stimuli/Set_1_rs/155b.jpg","67","","","TL","s","false","o","","","","","","","","","","",""
"image-keyboard-response","148","676543","0.0-2.0-11.0-0.46","2344.800000011921","","","stimuli/Set_1_rs/045b.jpg","66","","","TL","s","true","s","","","","","","","","","","",""
"image-keyboard-response","149","681046","0.0-2.0-11.0-0.47","1793.800000011921","","","stimuli/Set_1_rs/031b.jpg","66","","","TL","s","true","s","","","","","","","","","","",""
"image-keyboard-response","150","685549","0.0-2.0-11.0-0.48","1178.800000011921","","","stimuli/Set_1_rs/136a.jpg","67","","","TR","o","true","o","","","","","","","","","","",""
"image-keyboard-response","151","690052","0.0-2.0-11.0-0.49","963.6999999880791","","","stimuli/Set_1_rs/053a.jpg","77","","","TF","n","true","n","","","","","","","","","","",""
"image-keyboard-response","152","694554","0.0-2.0-11.0-0.50","1037","","","stimuli/Set_1_rs/061b.jpg","67","","","TL","s","false","o","","","","","","","","","","",""
"image-keyboard-response","153","699057","0.0-2.0-11.0-0.51","1030.3999999761581","","","stimuli/Set_1_rs/062a.jpg","77","","","TF","n","true","n","","","","","","","","","","",""
"image-keyboard-response","154","703560","0.0-2.0-11.0-0.52","911.5","","","stimuli/Set_1_rs/009a.jpg","67","","","TR","o","true","o","","","","","","","","","","",""
"image-keyboard-response","155","708064","0.0-2.0-11.0-0.53","1240.1000000238419","","","stimuli/Set_1_rs/099b.jpg","67","","","TL","s","false","o","","","","","","","","","","",""
"image-keyboard-response","156","712567","0.0-2.0-11.0-0.54","2080.899999976158","","","stimuli/Set_1_rs/030a.jpg","67","","","TR","o","true","o","","","","","","","","","","",""
"image-keyboard-response","157","717070","0.0-2.0-11.0-0.55","1177.0999999642372","","","stimuli/Set_1_rs/029a.jpg","67","","","TR","o","true","o","","","","","","","","","","",""
"image-keyboard-response","158","721574","0.0-2.0-11.0-0.56","913.5999999642372","","","stimuli/Set_1_rs/140b.jpg","67","","","TL","s","false","o","","","","","","","","","","",""
"image-keyboard-response","159","726077","0.0-2.0-11.0-0.57","954.5","","","stimuli/Set_1_rs/182a.jpg","77","","","TF","n","true","n","","","","","","","","","","",""
"image-keyboard-response","160","730580","0.0-2.0-11.0-0.58","2051.300000011921","","","stimuli/Set_1_rs/151a.jpg","66","","","TF","n","false","s","","","","","","","","","","",""
"image-keyboard-response","161","735083","0.0-2.0-11.0-0.59","955.9000000357628","","","stimuli/Set_1_rs/142a.jpg","67","","","TR","o","true","o","","","","","","","","","","",""
"image-keyboard-response","162","739587","0.0-2.0-11.0-0.60","612.5","","","stimuli/Set_1_rs/070a.jpg","67","","","TR","o","true","o","","","","","","","","","","",""
"image-keyboard-response","163","744090","0.0-2.0-11.0-0.61","989.5","","","stimuli/Set_1_rs/121a.jpg","77","","","TF","n","true","n","","","","","","","","","","",""
"image-keyboard-response","164","748593","0.0-2.0-11.0-0.62","918.1000000238419","","","stimuli/Set_1_rs/008b.jpg","67","","","TL","s","false","o","","","","","","","","","","",""
"image-keyboard-response","165","753098","0.0-2.0-11.0-0.63","2206.7000000476837","","","stimuli/Set_1_rs/092b.jpg","66","","","TL","s","true","s","","","","","","","","","","",""
"image-keyboard-response","166","757601","0.0-2.0-11.0-0.64","1126.300000011921","","","stimuli/Set_1_rs/192a.jpg","67","","","TR","o","true","o","","","","","","","","","","",""
"image-keyboard-response","167","762104","0.0-2.0-11.0-0.65","974.8999999761581","","","stimuli/Set_1_rs/147a.jpg","67","","","TR","o","true","o","","","","","","","","","","",""
"image-keyboard-response","168","766606","0.0-2.0-11.0-0.66","1560.199999988079","","","stimuli/Set_1_rs/032a.jpg","77","","","TF","n","true","n","","","","","","","","","","",""
"image-keyboard-response","169","771109","0.0-2.0-11.0-0.67","1105.4000000357628","","","stimuli/Set_1_rs/128b.jpg","67","","","TL","s","false","o","","","","","","","","","","",""
"image-keyboard-response","170","775613","0.0-2.0-11.0-0.68","1322.4000000357628","","","stimuli/Set_1_rs/186a.jpg","77","","","TF","n","true","n","","","","","","","","","","",""
"image-keyboard-response","171","780116","0.0-2.0-11.0-0.69","1139","","","stimuli/Set_1_rs/109a.jpg","67","","","TR","o","true","o","","","","","","","","","","",""
"image-keyboard-response","172","784618","0.0-2.0-11.0-0.70","1083.5999999642372","","","stimuli/Set_1_rs/160a.jpg","77","","","TF","n","true","n","","","","","","","","","","",""
"image-keyboard-response","173","789122","0.0-2.0-11.0-0.71","981.0999999642372","","","stimuli/Set_1_rs/086a.jpg","67","","","TR","o","true","o","","","","","","","","","","",""
"image-keyboard-response","174","793624","0.0-2.0-11.0-0.72","1165.8999999761581","","","stimuli/Set_1_rs/023b.jpg","67","","","TL","s","false","o","","","","","","","","","","",""
"image-keyboard-response","175","798127","0.0-2.0-11.0-0.73","1015","","","stimuli/Set_1_rs/114b.jpg","67","","","TL","s","false","o","","","","","","","","","","",""
"image-keyboard-response","176","802631","0.0-2.0-11.0-0.74","1008","","","stimuli/Set_1_rs/033b.jpg","67","","","TL","s","false","o","","","","","","","","","","",""
"image-keyboard-response","177","807134","0.0-2.0-11.0-0.75","1032.9000000357628","","","stimuli/Set_1_rs/010a.jpg","67","","","TR","o","true","o","","","","","","","","","","",""
"image-keyboard-response","178","811637","0.0-2.0-11.0-0.76","1121.5","","","stimuli/Set_1_rs/150a.jpg","67","","","TR","o","true","o","","","","","","","","","","",""
"image-keyboard-response","179","816140","0.0-2.0-11.0-0.77","1354.5999999642372","","","stimuli/Set_1_rs/038a.jpg","67","","","TR","o","true","o","","","","","","","","","","",""
"image-keyboard-response","180","820643","0.0-2.0-11.0-0.78","915.8000000119209","","","stimuli/Set_1_rs/022b.jpg","67","","","TL","s","false","o","","","","","","","","","","",""
"image-keyboard-response","181","825146","0.0-2.0-11.0-0.79","1260.0999999642372","","","stimuli/Set_1_rs/018a.jpg","77","","","TF","n","true","n","","","","","","","","","","",""
"image-keyboard-response","182","829649","0.0-2.0-11.0-0.80","981.3000000119209","","","stimuli/Set_1_rs/081a.jpg","77","","","TF","n","true","n","","","","","","","","","","",""
"image-keyboard-response","183","834152","0.0-2.0-11.0-0.81","1150.3999999761581","","","stimuli/Set_1_rs/107a.jpg","67","","","TR","o","true","o","","","","","","","","","","",""
"image-keyboard-response","184","838654","0.0-2.0-11.0-0.82","1031.699999988079","","","stimuli/Set_1_rs/101b.jpg","67","","","TL","s","false","o","","","","","","","","","","",""
"image-keyboard-response","185","843157","0.0-2.0-11.0-0.83","2048.899999976158","","","stimuli/Set_1_rs/178b.jpg","66","","","TL","s","true","s","","","","","","","","","","",""
"image-keyboard-response","186","847661","0.0-2.0-11.0-0.84","1417.800000011921","","","stimuli/Set_1_rs/103b.jpg","67","","","TL","s","false","o","","","","","","","","","","",""
"image-keyboard-response","187","852164","0.0-2.0-11.0-0.85","1602.5","","","stimuli/Set_1_rs/116b.jpg","66","","","TL","s","true","s","","","","","","","","","","",""
"image-keyboard-response","188","856667","0.0-2.0-11.0-0.86","1227.300000011921","","","stimuli/Set_1_rs/122a.jpg","77","","","TF","n","true","n","","","","","","","","","","",""
"image-keyboard-response","189","861169","0.0-2.0-11.0-0.87","1508.800000011921","","","stimuli/Set_1_rs/044a.jpg","77","","","TR","o","false","n","","","","","","","","","","",""
"image-keyboard-response","190","865673","0.0-2.0-11.0-0.88","1133.6000000238419","","","stimuli/Set_1_rs/049a.jpg","67","","","TR","o","true","o","","","","","","","","","","",""
"image-keyboard-response","191","870176","0.0-2.0-11.0-0.89","1014.3000000119209","","","stimuli/Set_1_rs/118a.jpg","67","","","TR","o","true","o","","","","","","","","","","",""
"image-keyboard-response","192","874679","0.0-2.0-11.0-0.90","863.3000000119209","","","stimuli/Set_1_rs/040a.jpg","67","","","TR","o","true","o","","","","","","","","","","",""
"image-keyboard-response","193","879183","0.0-2.0-11.0-0.91","855.8999999761581","","","stimuli/Set_1_rs/011b.jpg","67","","","TL","s","false","o","","","","","","","","","","",""
"image-keyboard-response","194","883686","0.0-2.0-11.0-0.92","1199.800000011921","","","stimuli/Set_1_rs/087a.jpg","77","","","TF","n","true","n","","","","","","","","","","",""
"image-keyboard-response","195","888189","0.0-2.0-11.0-0.93","1096.7999999523163","","","stimuli/Set_1_rs/063a.jpg","67","","","TR","o","true","o","","","","","","","","","","",""
"image-keyboard-response","196","892692","0.0-2.0-11.0-0.94","2226.199999988079","","","stimuli/Set_1_rs/098b.jpg","66","","","TL","s","true","s","","","","","","","","","","",""
"image-keyboard-response","197","897196","0.0-2.0-11.0-0.95","2058.699999988079","","","stimuli/Set_1_rs/058a.jpg","67","","","TR","o","true","o","","","","","","","","","","",""
"html-keyboard-response","198","903601","0.0-3.0","6403.600000023842","","","<p>Vége a feladatnak. Köszönjük a részvételt!</p>","71","","","","","","","31","2","1","25","7","2","0","1","33","0.9117647058823529","0.1764705882352941"
