"trial_type","trial_index","time_elapsed","internal_node_id","rt","responses","success","stimulus","key_press","cond","enc_response","condition","correct_response","correct","rec_response","targ_old","targ_sim","targ_new","lure_old","lure_sim","lure_new","foil_old","foil_sim","foil_new","recognition_ratio","ldi"
"pavlovia","0","6","0.0-0.0","","","","","","","","","","","","","","","","","","","","","",""
"survey-multi-choice","1","2107","0.0-1.0","2097.0999999046326","{""Q0"":""Igen"",""Q1"":""Igen""}","","","","","","","","","","","","","","","","","","","",""
"survey-text","2","60053","0.0-2.0-0.0","57945","{""Q0"":""357990""}","","","","","","","","","","","","","","","","","","","",""
"fullscreen","3","62345","0.0-2.0-1.0","","","true","","","","","","","","","","","","","","","","","","",""
"html-keyboard-response","4","70376","0.0-2.0-2.0","8029.5","","","<p>Üdvözöljük! Ez a feladat két részből áll, és összesen 10-15 percet vesz igénybe.</p>","32","","","","","","","","","","","","","","","","",""
"html-keyboard-response","5","88614","0.0-2.0-3.0-0.0","18237.300000190735","","","<p>Az első részben tárgyakat lát majd a képernyőn, egymás után fognak megjelenni.<br>Az Ön feladata eldönteni, hogy a tárgyak <i>beltéri vagy kültéri</i> tárgyak-e.</p>						   <p>Amennyiben a tárgyat általában beltéren látja, nyomja le a <b>C</b> billentyűt. Amennyiben a tárgyat általában kültéren látja, nyomja le az <b>M</b> billentyűt.</p>						   <p>Ebben a feladatban nincsen mindig egyértelműen jó megoldás. Válaszoljon legjobb tudása szerint. A válaszadásra 2 másodperce lesz.","32","","","","","","","","","","","","","","","","",""
"html-keyboard-response","6","90616","0.0-2.0-3.0-1.0","null","","","<p>Kezdődik a gyakorlás...</p>","null","","","","","","","","","","","","","","","","",""
"image-keyboard-response","7","92619","0.0-2.0-4.0-0.0","null","","","stimuli/Set_2_rs/165b.jpg","null","-","null","","","","","","","","","","","","","","",""
"html-keyboard-response","8","95478","0.0-2.0-4.0-1.0","2355.699999809265","","","<p>Az Ön válasza:</p><p>Nem adott választ.</p>","32","","","","","","","","","","","","","","","","",""
"image-keyboard-response","9","97481","0.0-2.0-4.0-0.1","1165.5999999046326","","","stimuli/Set_2_rs/034a.jpg","67","-","indoor","","","","","","","","","","","","","","",""
"html-keyboard-response","10","99654","0.0-2.0-4.0-1.1","1671.8000001907349","","","<p>Az Ön válasza:</p><p>Beltéri.</p>","32","","","","","","","","","","","","","","","","",""
"image-keyboard-response","11","101656","0.0-2.0-4.0-0.2","null","","","stimuli/Set_2_rs/049a.jpg","null","SL","null","","","","","","","","","","","","","","",""
"html-keyboard-response","12","106279","0.0-2.0-4.0-1.2","4121","","","<p>Az Ön válasza:</p><p>Nem adott választ.</p>","32","","","","","","","","","","","","","","","","",""
"image-keyboard-response","13","108281","0.0-2.0-4.0-0.3","1165.7999997138977","","","stimuli/Set_2_rs/028a.jpg","67","SR","indoor","","","","","","","","","","","","","","",""
"html-keyboard-response","14","110166","0.0-2.0-4.0-1.3","1383.8000001907349","","","<p>Az Ön válasza:</p><p>Beltéri.</p>","32","","","","","","","","","","","","","","","","",""
"image-keyboard-response","15","112169","0.0-2.0-4.0-0.4","1166.0999999046326","","","stimuli/Set_2_rs/135a.jpg","67","SL","indoor","","","","","","","","","","","","","","",""
"html-keyboard-response","16","113622","0.0-2.0-4.0-1.4","951.2999997138977","","","<p>Az Ön válasza:</p><p>Beltéri.</p>","32","","","","","","","","","","","","","","","","",""
"image-keyboard-response","17","115625","0.0-2.0-4.0-0.5","null","","","stimuli/Set_2_rs/137a.jpg","null","SR","null","","","","","","","","","","","","","","",""
"html-keyboard-response","18","116838","0.0-2.0-4.0-1.5","711.0999999046326","","","<p>Az Ön válasza:</p><p>Nem adott választ.</p>","32","","","","","","","","","","","","","","","","",""
"html-keyboard-response","19","118278","0.0-2.0-5.0-0.0","1439.1999998092651","","","<p>Ez volt a gyakorlás. A feladat következik. A feladat alatt már nem kap visszajelzést.</p>","32","","","","","","","","","","","","","","","","",""
"html-keyboard-response","20","120279","0.0-2.0-5.0-1.0","null","","","<p>Kezdődik a feladat...</p>","null","","","","","","","","","","","","","","","","",""
"image-keyboard-response","21","122783","0.0-2.0-6.0-0.0","909","","","stimuli/Set_1_rs/157a.jpg","67","","indoor","SR","","","","","","","","","","","","","",""
"image-keyboard-response","22","125286","0.0-2.0-6.0-0.1","1013.5","","","stimuli/Set_1_rs/009a.jpg","67","","indoor","SR","","","","","","","","","","","","","",""
"image-keyboard-response","23","127787","0.0-2.0-6.0-0.2","1359.3000001907349","","","stimuli/Set_1_rs/059a.jpg","77","","outdoor","SL","","","","","","","","","","","","","",""
"image-keyboard-response","24","130290","0.0-2.0-6.0-0.3","921.4000000953674","","","stimuli/Set_1_rs/024a.jpg","67","","indoor","SR","","","","","","","","","","","","","",""
"image-keyboard-response","25","132792","0.0-2.0-6.0-0.4","1251.2999997138977","","","stimuli/Set_1_rs/101a.jpg","77","","outdoor","SL","","","","","","","","","","","","","",""
"image-keyboard-response","26","135294","0.0-2.0-6.0-0.5","1164.5","","","stimuli/Set_1_rs/137a.jpg","77","","outdoor","SR","","","","","","","","","","","","","",""
"image-keyboard-response","27","137796","0.0-2.0-6.0-0.6","886.5","","","stimuli/Set_1_rs/011a.jpg","77","","outdoor","SL","","","","","","","","","","","","","",""
"image-keyboard-response","28","140298","0.0-2.0-6.0-0.7","1121.0999999046326","","","stimuli/Set_1_rs/128a.jpg","67","","indoor","SL","","","","","","","","","","","","","",""
"image-keyboard-response","29","142799","0.0-2.0-6.0-0.8","1019","","","stimuli/Set_1_rs/083a.jpg","77","","outdoor","SL","","","","","","","","","","","","","",""
"image-keyboard-response","30","145302","0.0-2.0-6.0-0.9","1076.8000001907349","","","stimuli/Set_1_rs/136a.jpg","67","","indoor","SR","","","","","","","","","","","","","",""
"image-keyboard-response","31","147804","0.0-2.0-6.0-0.10","782.7000002861023","","","stimuli/Set_1_rs/103a.jpg","67","","indoor","SL","","","","","","","","","","","","","",""
"image-keyboard-response","32","150306","0.0-2.0-6.0-0.11","776.5","","","stimuli/Set_1_rs/086a.jpg","67","","indoor","SR","","","","","","","","","","","","","",""
"image-keyboard-response","33","152807","0.0-2.0-6.0-0.12","1139","","","stimuli/Set_1_rs/099a.jpg","77","","outdoor","SL","","","","","","","","","","","","","",""
"image-keyboard-response","34","155310","0.0-2.0-6.0-0.13","988.8000001907349","","","stimuli/Set_1_rs/178a.jpg","77","","outdoor","SL","","","","","","","","","","","","","",""
"image-keyboard-response","35","157812","0.0-2.0-6.0-0.14","1254.5","","","stimuli/Set_1_rs/134a.jpg","77","","outdoor","SL","","","","","","","","","","","","","",""
"image-keyboard-response","36","160315","0.0-2.0-6.0-0.15","704.2999997138977","","","stimuli/Set_1_rs/156a.jpg","77","","outdoor","SL","","","","","","","","","","","","","",""
"image-keyboard-response","37","162817","0.0-2.0-6.0-0.16","1097.4000000953674","","","stimuli/Set_1_rs/054a.jpg","77","","outdoor","SR","","","","","","","","","","","","","",""
"image-keyboard-response","38","165319","0.0-2.0-6.0-0.17","819.0999999046326","","","stimuli/Set_1_rs/092a.jpg","77","","outdoor","SL","","","","","","","","","","","","","",""
"image-keyboard-response","39","167821","0.0-2.0-6.0-0.18","1261.3999996185303","","","stimuli/Set_1_rs/031a.jpg","67","","indoor","SL","","","","","","","","","","","","","",""
"image-keyboard-response","40","170323","0.0-2.0-6.0-0.19","1079.4000000953674","","","stimuli/Set_1_rs/013a.jpg","67","","indoor","SL","","","","","","","","","","","","","",""
"image-keyboard-response","41","172825","0.0-2.0-6.0-0.20","801.3000001907349","","","stimuli/Set_1_rs/075a.jpg","67","","indoor","SL","","","","","","","","","","","","","",""
"image-keyboard-response","42","175328","0.0-2.0-6.0-0.21","1498.4000000953674","","","stimuli/Set_1_rs/150a.jpg","67","","indoor","SR","","","","","","","","","","","","","",""
"image-keyboard-response","43","177829","0.0-2.0-6.0-0.22","804.1999998092651","","","stimuli/Set_1_rs/094a.jpg","67","","indoor","SL","","","","","","","","","","","","","",""
"image-keyboard-response","44","180331","0.0-2.0-6.0-0.23","1071.0999999046326","","","stimuli/Set_1_rs/090a.jpg","77","","outdoor","SL","","","","","","","","","","","","","",""
"image-keyboard-response","45","182833","0.0-2.0-6.0-0.24","1193.0999999046326","","","stimuli/Set_1_rs/192a.jpg","67","","indoor","SR","","","","","","","","","","","","","",""
"image-keyboard-response","46","185336","0.0-2.0-6.0-0.25","1027","","","stimuli/Set_1_rs/116a.jpg","67","","indoor","SL","","","","","","","","","","","","","",""
"image-keyboard-response","47","187838","0.0-2.0-6.0-0.26","892.4000000953674","","","stimuli/Set_1_rs/044a.jpg","67","","indoor","SR","","","","","","","","","","","","","",""
"image-keyboard-response","48","190339","0.0-2.0-6.0-0.27","1302.7000002861023","","","stimuli/Set_1_rs/114a.jpg","67","","indoor","SL","","","","","","","","","","","","","",""
"image-keyboard-response","49","192841","0.0-2.0-6.0-0.28","1024.9000000953674","","","stimuli/Set_1_rs/112a.jpg","67","","indoor","SR","","","","","","","","","","","","","",""
"image-keyboard-response","50","195344","0.0-2.0-6.0-0.29","1146.2000002861023","","","stimuli/Set_1_rs/052a.jpg","67","","indoor","SL","","","","","","","","","","","","","",""
"image-keyboard-response","51","197846","0.0-2.0-6.0-0.30","1347.7999997138977","","","stimuli/Set_1_rs/058a.jpg","77","","outdoor","SR","","","","","","","","","","","","","",""
"image-keyboard-response","52","200348","0.0-2.0-6.0-0.31","1118.2999997138977","","","stimuli/Set_1_rs/023a.jpg","77","","outdoor","SL","","","","","","","","","","","","","",""
"image-keyboard-response","53","202850","0.0-2.0-6.0-0.32","1672.4000000953674","","","stimuli/Set_1_rs/030a.jpg","77","","outdoor","SR","","","","","","","","","","","","","",""
"image-keyboard-response","54","205353","0.0-2.0-6.0-0.33","1825.5","","","stimuli/Set_1_rs/091a.jpg","67","","indoor","SR","","","","","","","","","","","","","",""
"image-keyboard-response","55","207856","0.0-2.0-6.0-0.34","1674.5","","","stimuli/Set_1_rs/147a.jpg","77","","outdoor","SR","","","","","","","","","","","","","",""
"image-keyboard-response","56","210359","0.0-2.0-6.0-0.35","1300.0999999046326","","","stimuli/Set_1_rs/063a.jpg","77","","outdoor","SR","","","","","","","","","","","","","",""
"image-keyboard-response","57","212862","0.0-2.0-6.0-0.36","956.7000002861023","","","stimuli/Set_1_rs/040a.jpg","77","","outdoor","SR","","","","","","","","","","","","","",""
"image-keyboard-response","58","215364","0.0-2.0-6.0-0.37","1157.2999997138977","","","stimuli/Set_1_rs/038a.jpg","67","","indoor","SR","","","","","","","","","","","","","",""
"image-keyboard-response","59","217866","0.0-2.0-6.0-0.38","1631.0999999046326","","","stimuli/Set_1_rs/100a.jpg","67","","indoor","SL","","","","","","","","","","","","","",""
"image-keyboard-response","60","220368","0.0-2.0-6.0-0.39","1209.3000001907349","","","stimuli/Set_1_rs/109a.jpg","67","","indoor","SR","","","","","","","","","","","","","",""
"image-keyboard-response","61","222869","0.0-2.0-6.0-0.40","1331.9000000953674","","","stimuli/Set_1_rs/191a.jpg","77","","outdoor","SR","","","","","","","","","","","","","",""
"image-keyboard-response","62","225371","0.0-2.0-6.0-0.41","973.5999999046326","","","stimuli/Set_1_rs/061a.jpg","67","","indoor","SL","","","","","","","","","","","","","",""
"image-keyboard-response","63","227874","0.0-2.0-6.0-0.42","1512.3000001907349","","","stimuli/Set_1_rs/162a.jpg","77","","outdoor","SR","","","","","","","","","","","","","",""
"image-keyboard-response","64","230376","0.0-2.0-6.0-0.43","833.4000000953674","","","stimuli/Set_1_rs/046a.jpg","77","","outdoor","SR","","","","","","","","","","","","","",""
"image-keyboard-response","65","232877","0.0-2.0-6.0-0.44","1003.6000003814697","","","stimuli/Set_1_rs/155a.jpg","77","","outdoor","SL","","","","","","","","","","","","","",""
"image-keyboard-response","66","235380","0.0-2.0-6.0-0.45","1653.5999999046326","","","stimuli/Set_1_rs/010a.jpg","67","","indoor","SR","","","","","","","","","","","","","",""
"image-keyboard-response","67","237882","0.0-2.0-6.0-0.46","1087.4000000953674","","","stimuli/Set_1_rs/142a.jpg","67","","indoor","SR","","","","","","","","","","","","","",""
"image-keyboard-response","68","240384","0.0-2.0-6.0-0.47","1833.5999999046326","","","stimuli/Set_1_rs/045a.jpg","67","","indoor","SL","","","","","","","","","","","","","",""
"image-keyboard-response","69","242886","0.0-2.0-6.0-0.48","675.1999998092651","","","stimuli/Set_1_rs/070a.jpg","67","","indoor","SR","","","","","","","","","","","","","",""
"image-keyboard-response","70","245389","0.0-2.0-6.0-0.49","1260.5","","","stimuli/Set_1_rs/022a.jpg","67","","indoor","SL","","","","","","","","","","","","","",""
"image-keyboard-response","71","247890","0.0-2.0-6.0-0.50","1238.8999996185303","","","stimuli/Set_1_rs/021a.jpg","67","","indoor","SR","","","","","","","","","","","","","",""
"image-keyboard-response","72","250392","0.0-2.0-6.0-0.51","977.4000000953674","","","stimuli/Set_1_rs/098a.jpg","77","","outdoor","SL","","","","","","","","","","","","","",""
"image-keyboard-response","73","252894","0.0-2.0-6.0-0.52","876","","","stimuli/Set_1_rs/008a.jpg","67","","indoor","SL","","","","","","","","","","","","","",""
"image-keyboard-response","74","255396","0.0-2.0-6.0-0.53","1061","","","stimuli/Set_1_rs/012a.jpg","67","","indoor","SL","","","","","","","","","","","","","",""
"image-keyboard-response","75","257898","0.0-2.0-6.0-0.54","719.0999999046326","","","stimuli/Set_1_rs/153a.jpg","67","","indoor","SR","","","","","","","","","","","","","",""
"image-keyboard-response","76","260399","0.0-2.0-6.0-0.55","1353.2999997138977","","","stimuli/Set_1_rs/068a.jpg","67","","indoor","SL","","","","","","","","","","","","","",""
"image-keyboard-response","77","262901","0.0-2.0-6.0-0.56","643.6999998092651","","","stimuli/Set_1_rs/140a.jpg","67","","indoor","SL","","","","","","","","","","","","","",""
"image-keyboard-response","78","265403","0.0-2.0-6.0-0.57","1278","","","stimuli/Set_1_rs/029a.jpg","67","","indoor","SR","","","","","","","","","","","","","",""
"image-keyboard-response","79","267906","0.0-2.0-6.0-0.58","696.0999999046326","","","stimuli/Set_1_rs/049a.jpg","67","","indoor","SR","","","","","","","","","","","","","",""
"image-keyboard-response","80","270407","0.0-2.0-6.0-0.59","705.5999999046326","","","stimuli/Set_1_rs/180a.jpg","67","","indoor","SR","","","","","","","","","","","","","",""
"image-keyboard-response","81","272909","0.0-2.0-6.0-0.60","1947.6999998092651","","","stimuli/Set_1_rs/033a.jpg","67","","indoor","SL","","","","","","","","","","","","","",""
"image-keyboard-response","82","275412","0.0-2.0-6.0-0.61","1093.2000002861023","","","stimuli/Set_1_rs/119a.jpg","77","","outdoor","SL","","","","","","","","","","","","","",""
"image-keyboard-response","83","277914","0.0-2.0-6.0-0.62","927.4000000953674","","","stimuli/Set_1_rs/118a.jpg","67","","indoor","SR","","","","","","","","","","","","","",""
"image-keyboard-response","84","280416","0.0-2.0-6.0-0.63","1161.1000003814697","","","stimuli/Set_1_rs/107a.jpg","77","","outdoor","SR","","","","","","","","","","","","","",""
"html-keyboard-response","85","304100","0.0-2.0-7.0","23683.400000095367","","","<p>Vége a feladat első részének. Tartson egy pár perces szünetet.</p>","32","","","","","","","","","","","","","","","","",""
"html-keyboard-response","86","346996","0.0-2.0-8.0-0.0","42894.59999990463","","","<p>A következőkben ismét tárgyak jelennek majd meg a képernyőn, egymás után.<br>Az Ön feladata eldönteni, látta-e már ezeket a tárgyakat a vizsgálat első felében.</p>		        			<p>Amennyiben pontosan ugyanezt a tárgyat látta (a tárgy <i>régi</i>), nyomja le a <b>C</b> billentyűt.</p>		        			<p>Amennyiben hasonló tárgyat látott (a tárgy <i>hasonló</i>), nyomja le a <b>B</b> billentyűt.</p>		        			<p>Amennyiben nem látta ezt a tárgyat az első részben (a tárgy <i>új</i>), nyomja le az <b>M</b> billentyűt.</p>","32","","","","","","","","","","","","","","","","",""
"html-keyboard-response","87","348997","0.0-2.0-8.0-1.0","null","","","<p>Kezdődik a gyakorlás...</p>","null","","","","","","","","","","","","","","","","",""
"image-keyboard-response","88","353000","0.0-2.0-9.0-0.0","2012.4000000953674","","","stimuli/Set_2_rs/049b.jpg","67","","","TL","l","false","o","","","","","","","","","","",""
"html-keyboard-response","89","359219","0.0-2.0-9.0-1.0","6217.5","","","<p>A helyes válasz: Hasonló.</p><p>Az Ön válasza: Régi.</p>","32","","","","","","","","","","","","","","","","",""
"image-keyboard-response","90","363222","0.0-2.0-9.0-0.1","2093.7000002861023","","","stimuli/Set_2_rs/018b.jpg","77","","","TF","n","true","n","","","","","","","","","","",""
"html-keyboard-response","91","365332","0.0-2.0-9.0-1.1","2108.0999999046326","","","<p>A helyes válasz: Új.</p><p>Az Ön válasza: Új.</p>","32","","","","","","","","","","","","","","","","",""
"image-keyboard-response","92","369334","0.0-2.0-9.0-0.2","1534.1000003814697","","","stimuli/Set_2_rs/028a.jpg","77","","","TR","o","false","n","","","","","","","","","","",""
"html-keyboard-response","93","374340","0.0-2.0-9.0-1.2","5004.200000286102","","","<p>A helyes válasz: Régi.</p><p>Az Ön válasza: Új.</p>","32","","","","","","","","","","","","","","","","",""
"image-keyboard-response","94","378342","0.0-2.0-9.0-0.3","1309.7999997138977","","","stimuli/Set_2_rs/137a.jpg","77","","","TR","o","false","n","","","","","","","","","","",""
"html-keyboard-response","95","380131","0.0-2.0-9.0-1.3","1787.8999996185303","","","<p>A helyes válasz: Régi.</p><p>Az Ön válasza: Új.</p>","32","","","","","","","","","","","","","","","","",""
"image-keyboard-response","96","384134","0.0-2.0-9.0-0.4","1358.1999998092651","","","stimuli/Set_2_rs/135b.jpg","67","","","TL","l","false","o","","","","","","","","","","",""
"html-keyboard-response","97","391811","0.0-2.0-9.0-1.4","7675.599999904633","","","<p>A helyes válasz: Hasonló.</p><p>Az Ön válasza: Régi.</p>","32","","","","","","","","","","","","","","","","",""
"image-keyboard-response","98","395814","0.0-2.0-9.0-0.5","1117.5","","","stimuli/Set_2_rs/019a.jpg","77","","","TF","n","true","n","","","","","","","","","","",""
"html-keyboard-response","99","397283","0.0-2.0-9.0-1.5","1467.5999999046326","","","<p>A helyes válasz: Új.</p><p>Az Ön válasza: Új.</p>","32","","","","","","","","","","","","","","","","",""
"html-keyboard-response","100","400451","0.0-2.0-10.0-0.0","3167.199999809265","","","<p>Ez volt a gyakorlás. A feladat következik. A feladat alatt már nem kap visszajelzést.</p>","32","","","","","","","","","","","","","","","","",""
"html-keyboard-response","101","402453","0.0-2.0-10.0-1.0","null","","","<p>Kezdődik a feladat...</p>","null","","","","","","","","","","","","","","","","",""
"image-keyboard-response","102","406955","0.0-2.0-11.0-0.0","2412.300000190735","","","stimuli/Set_1_rs/181a.jpg","67","","","TF","n","false","o","","","","","","","","","","",""
"image-keyboard-response","103","411458","0.0-2.0-11.0-0.1","1205.5999999046326","","","stimuli/Set_1_rs/152a.jpg","77","","","TF","n","true","n","","","","","","","","","","",""
"image-keyboard-response","104","415962","0.0-2.0-11.0-0.2","2510.2000002861023","","","stimuli/Set_1_rs/090b.jpg","66","","","TL","s","true","s","","","","","","","","","","",""
"image-keyboard-response","105","420465","0.0-2.0-11.0-0.3","1270.7000002861023","","","stimuli/Set_1_rs/126a.jpg","77","","","TF","n","true","n","","","","","","","","","","",""
"image-keyboard-response","106","424968","0.0-2.0-11.0-0.4","1215.5","","","stimuli/Set_1_rs/068b.jpg","67","","","TL","s","false","o","","","","","","","","","","",""
"image-keyboard-response","107","429471","0.0-2.0-11.0-0.5","1032.6999998092651","","","stimuli/Set_1_rs/054a.jpg","67","","","TR","o","true","o","","","","","","","","","","",""
"image-keyboard-response","108","433973","0.0-2.0-11.0-0.6","1169.2999997138977","","","stimuli/Set_1_rs/162a.jpg","67","","","TR","o","true","o","","","","","","","","","","",""
"image-keyboard-response","109","438477","0.0-2.0-11.0-0.7","1339","","","stimuli/Set_1_rs/019a.jpg","77","","","TF","n","true","n","","","","","","","","","","",""
"image-keyboard-response","110","442980","0.0-2.0-11.0-0.8","1523.4000000953674","","","stimuli/Set_1_rs/119b.jpg","66","","","TL","s","true","s","","","","","","","","","","",""
"image-keyboard-response","111","447483","0.0-2.0-11.0-0.9","1308.2999997138977","","","stimuli/Set_1_rs/052b.jpg","77","","","TL","s","false","n","","","","","","","","","","",""
"image-keyboard-response","112","451986","0.0-2.0-11.0-0.10","1189.1999998092651","","","stimuli/Set_1_rs/135a.jpg","77","","","TF","n","true","n","","","","","","","","","","",""
"image-keyboard-response","113","456488","0.0-2.0-11.0-0.11","718.4000000953674","","","stimuli/Set_1_rs/004a.jpg","77","","","TF","n","true","n","","","","","","","","","","",""
"image-keyboard-response","114","460991","0.0-2.0-11.0-0.12","743.5999999046326","","","stimuli/Set_1_rs/072a.jpg","77","","","TF","n","true","n","","","","","","","","","","",""
"image-keyboard-response","115","465493","0.0-2.0-11.0-0.13","833.0999999046326","","","stimuli/Set_1_rs/028a.jpg","77","","","TF","n","true","n","","","","","","","","","","",""
"image-keyboard-response","116","469996","0.0-2.0-11.0-0.14","1114.6999998092651","","","stimuli/Set_1_rs/091a.jpg","67","","","TR","o","true","o","","","","","","","","","","",""
"image-keyboard-response","117","474499","0.0-2.0-11.0-0.15","884","","","stimuli/Set_1_rs/108a.jpg","77","","","TF","n","true","n","","","","","","","","","","",""
"image-keyboard-response","118","479001","0.0-2.0-11.0-0.16","1293.5","","","stimuli/Set_1_rs/146a.jpg","77","","","TF","n","true","n","","","","","","","","","","",""
"image-keyboard-response","119","483503","0.0-2.0-11.0-0.17","1367","","","stimuli/Set_1_rs/013b.jpg","77","","","TL","s","false","n","","","","","","","","","","",""
"image-keyboard-response","120","488006","0.0-2.0-11.0-0.18","800.7999997138977","","","stimuli/Set_1_rs/141a.jpg","77","","","TF","n","true","n","","","","","","","","","","",""
"image-keyboard-response","121","492509","0.0-2.0-11.0-0.19","1945.4000000953674","","","stimuli/Set_1_rs/156b.jpg","66","","","TL","s","true","s","","","","","","","","","","",""
"image-keyboard-response","122","497012","0.0-2.0-11.0-0.20","1330.8000001907349","","","stimuli/Set_1_rs/024a.jpg","67","","","TR","o","true","o","","","","","","","","","","",""
"image-keyboard-response","123","501515","0.0-2.0-11.0-0.21","1356.3000001907349","","","stimuli/Set_1_rs/046a.jpg","67","","","TR","o","true","o","","","","","","","","","","",""
"image-keyboard-response","124","506017","0.0-2.0-11.0-0.22","1125","","","stimuli/Set_1_rs/100b.jpg","67","","","TL","s","false","o","","","","","","","","","","",""
"image-keyboard-response","125","510521","0.0-2.0-11.0-0.23","1102.6000003814697","","","stimuli/Set_1_rs/080a.jpg","77","","","TF","n","true","n","","","","","","","","","","",""
"image-keyboard-response","126","515024","0.0-2.0-11.0-0.24","1222.8999996185303","","","stimuli/Set_1_rs/094b.jpg","67","","","TL","s","false","o","","","","","","","","","","",""
"image-keyboard-response","127","519527","0.0-2.0-11.0-0.25","831.6999998092651","","","stimuli/Set_1_rs/190a.jpg","77","","","TF","n","true","n","","","","","","","","","","",""
"image-keyboard-response","128","524030","0.0-2.0-11.0-0.26","1560.5","","","stimuli/Set_1_rs/137a.jpg","67","","","TR","o","true","o","","","","","","","","","","",""
"image-keyboard-response","129","528532","0.0-2.0-11.0-0.27","866","","","stimuli/Set_1_rs/180a.jpg","67","","","TR","o","true","o","","","","","","","","","","",""
"image-keyboard-response","130","533036","0.0-2.0-11.0-0.28","955.3000001907349","","","stimuli/Set_1_rs/134b.jpg","67","","","TL","s","false","o","","","","","","","","","","",""
"image-keyboard-response","131","537538","0.0-2.0-11.0-0.29","1059.6999998092651","","","stimuli/Set_1_rs/088a.jpg","77","","","TF","n","true","n","","","","","","","","","","",""
"image-keyboard-response","132","542041","0.0-2.0-11.0-0.30","781","","","stimuli/Set_1_rs/165a.jpg","77","","","TF","n","true","n","","","","","","","","","","",""
"image-keyboard-response","133","546545","0.0-2.0-11.0-0.31","788.5","","","stimuli/Set_1_rs/075b.jpg","77","","","TL","s","false","n","","","","","","","","","","",""
"image-keyboard-response","134","551048","0.0-2.0-11.0-0.32","1614","","","stimuli/Set_1_rs/191a.jpg","67","","","TR","o","true","o","","","","","","","","","","",""
"image-keyboard-response","135","555551","0.0-2.0-11.0-0.33","1303.4000000953674","","","stimuli/Set_1_rs/112a.jpg","67","","","TR","o","true","o","","","","","","","","","","",""
"image-keyboard-response","136","560054","0.0-2.0-11.0-0.34","1056.1999998092651","","","stimuli/Set_1_rs/171a.jpg","77","","","TF","n","true","n","","","","","","","","","","",""
"image-keyboard-response","137","564556","0.0-2.0-11.0-0.35","953.2999997138977","","","stimuli/Set_1_rs/021a.jpg","67","","","TR","o","true","o","","","","","","","","","","",""
"image-keyboard-response","138","569059","0.0-2.0-11.0-0.36","914.8000001907349","","","stimuli/Set_1_rs/157a.jpg","67","","","TR","o","true","o","","","","","","","","","","",""
"image-keyboard-response","139","573562","0.0-2.0-11.0-0.37","1163.9000000953674","","","stimuli/Set_1_rs/059b.jpg","77","","","TL","s","false","n","","","","","","","","","","",""
"image-keyboard-response","140","578066","0.0-2.0-11.0-0.38","3972.7000002861023","","","stimuli/Set_1_rs/153a.jpg","66","","","TR","o","false","s","","","","","","","","","","",""
"image-keyboard-response","141","582569","0.0-2.0-11.0-0.39","null","","","stimuli/Set_1_rs/002a.jpg","null","","","TF","n","false","null","","","","","","","","","","",""
"image-keyboard-response","142","587071","0.0-2.0-11.0-0.40","null","","","stimuli/Set_1_rs/041a.jpg","null","","","TF","n","false","null","","","","","","","","","","",""
"image-keyboard-response","143","591573","0.0-2.0-11.0-0.41","1328","","","stimuli/Set_1_rs/012b.jpg","67","","","TL","s","false","o","","","","","","","","","","",""
"image-keyboard-response","144","596076","0.0-2.0-11.0-0.42","841.5","","","stimuli/Set_1_rs/083b.jpg","67","","","TL","s","false","o","","","","","","","","","","",""
"image-keyboard-response","145","600579","0.0-2.0-11.0-0.43","null","","","stimuli/Set_1_rs/051a.jpg","null","","","TF","n","false","null","","","","","","","","","","",""
"image-keyboard-response","146","605082","0.0-2.0-11.0-0.44","null","","","stimuli/Set_1_rs/168a.jpg","null","","","TF","n","false","null","","","","","","","","","","",""
"image-keyboard-response","147","609585","0.0-2.0-11.0-0.45","2644.0999999046326","","","stimuli/Set_1_rs/155b.jpg","67","","","TL","s","false","o","","","","","","","","","","",""
"image-keyboard-response","148","614088","0.0-2.0-11.0-0.46","2541.0999999046326","","","stimuli/Set_1_rs/045b.jpg","66","","","TL","s","true","s","","","","","","","","","","",""
"image-keyboard-response","149","618590","0.0-2.0-11.0-0.47","null","","","stimuli/Set_1_rs/031b.jpg","null","","","TL","s","false","null","","","","","","","","","","",""
"image-keyboard-response","150","623093","0.0-2.0-11.0-0.48","1407.6999998092651","","","stimuli/Set_1_rs/136a.jpg","67","","","TR","o","true","o","","","","","","","","","","",""
"image-keyboard-response","151","627596","0.0-2.0-11.0-0.49","null","","","stimuli/Set_1_rs/053a.jpg","null","","","TF","n","false","null","","","","","","","","","","",""
"image-keyboard-response","152","632099","0.0-2.0-11.0-0.50","1186.3000001907349","","","stimuli/Set_1_rs/061b.jpg","67","","","TL","s","false","o","","","","","","","","","","",""
"image-keyboard-response","153","636602","0.0-2.0-11.0-0.51","null","","","stimuli/Set_1_rs/062a.jpg","null","","","TF","n","false","null","","","","","","","","","","",""
"image-keyboard-response","154","641104","0.0-2.0-11.0-0.52","null","","","stimuli/Set_1_rs/009a.jpg","null","","","TR","o","false","null","","","","","","","","","","",""
"image-keyboard-response","155","645607","0.0-2.0-11.0-0.53","2941.7999997138977","","","stimuli/Set_1_rs/099b.jpg","66","","","TL","s","true","s","","","","","","","","","","",""
"image-keyboard-response","156","650110","0.0-2.0-11.0-0.54","1415.1999998092651","","","stimuli/Set_1_rs/030a.jpg","67","","","TR","o","true","o","","","","","","","","","","",""
"image-keyboard-response","157","654612","0.0-2.0-11.0-0.55","1311.8999996185303","","","stimuli/Set_1_rs/029a.jpg","67","","","TR","o","true","o","","","","","","","","","","",""
"image-keyboard-response","158","659115","0.0-2.0-11.0-0.56","857.5","","","stimuli/Set_1_rs/140b.jpg","67","","","TL","s","false","o","","","","","","","","","","",""
"image-keyboard-response","159","663618","0.0-2.0-11.0-0.57","898.5999999046326","","","stimuli/Set_1_rs/182a.jpg","77","","","TF","n","true","n","","","","","","","","","","",""
"image-keyboard-response","160","668121","0.0-2.0-11.0-0.58","1707.5","","","stimuli/Set_1_rs/151a.jpg","77","","","TF","n","true","n","","","","","","","","","","",""
"image-keyboard-response","161","672624","0.0-2.0-11.0-0.59","1028.9000000953674","","","stimuli/Set_1_rs/142a.jpg","67","","","TR","o","true","o","","","","","","","","","","",""
"image-keyboard-response","162","677126","0.0-2.0-11.0-0.60","1981.5","","","stimuli/Set_1_rs/070a.jpg","66","","","TR","o","false","s","","","","","","","","","","",""
"image-keyboard-response","163","681630","0.0-2.0-11.0-0.61","967.4000000953674","","","stimuli/Set_1_rs/121a.jpg","77","","","TF","n","true","n","","","","","","","","","","",""
"image-keyboard-response","164","686132","0.0-2.0-11.0-0.62","1872.1000003814697","","","stimuli/Set_1_rs/008b.jpg","67","","","TL","s","false","o","","","","","","","","","","",""
"image-keyboard-response","165","690636","0.0-2.0-11.0-0.63","1241.2999997138977","","","stimuli/Set_1_rs/092b.jpg","67","","","TL","s","false","o","","","","","","","","","","",""
"image-keyboard-response","166","695138","0.0-2.0-11.0-0.64","1010.2000002861023","","","stimuli/Set_1_rs/192a.jpg","67","","","TR","o","true","o","","","","","","","","","","",""
"image-keyboard-response","167","699641","0.0-2.0-11.0-0.65","1355.4000000953674","","","stimuli/Set_1_rs/147a.jpg","67","","","TR","o","true","o","","","","","","","","","","",""
"image-keyboard-response","168","704144","0.0-2.0-11.0-0.66","884.0999999046326","","","stimuli/Set_1_rs/032a.jpg","77","","","TF","n","true","n","","","","","","","","","","",""
"image-keyboard-response","169","708647","0.0-2.0-11.0-0.67","2461.2999997138977","","","stimuli/Set_1_rs/128b.jpg","66","","","TL","s","true","s","","","","","","","","","","",""
"image-keyboard-response","170","713150","0.0-2.0-11.0-0.68","2086.4000000953674","","","stimuli/Set_1_rs/186a.jpg","77","","","TF","n","true","n","","","","","","","","","","",""
"image-keyboard-response","171","717653","0.0-2.0-11.0-0.69","1167.0999999046326","","","stimuli/Set_1_rs/109a.jpg","67","","","TR","o","true","o","","","","","","","","","","",""
"image-keyboard-response","172","722156","0.0-2.0-11.0-0.70","1448.4000000953674","","","stimuli/Set_1_rs/160a.jpg","77","","","TF","n","true","n","","","","","","","","","","",""
"image-keyboard-response","173","726658","0.0-2.0-11.0-0.71","1441.3000001907349","","","stimuli/Set_1_rs/086a.jpg","67","","","TR","o","true","o","","","","","","","","","","",""
"image-keyboard-response","174","731161","0.0-2.0-11.0-0.72","1546.8999996185303","","","stimuli/Set_1_rs/023b.jpg","67","","","TL","s","false","o","","","","","","","","","","",""
"image-keyboard-response","175","735664","0.0-2.0-11.0-0.73","1572.3000001907349","","","stimuli/Set_1_rs/114b.jpg","77","","","TL","s","false","n","","","","","","","","","","",""
"image-keyboard-response","176","740167","0.0-2.0-11.0-0.74","1388.7999997138977","","","stimuli/Set_1_rs/033b.jpg","77","","","TL","s","false","n","","","","","","","","","","",""
"image-keyboard-response","177","744670","0.0-2.0-11.0-0.75","1190.1999998092651","","","stimuli/Set_1_rs/010a.jpg","67","","","TR","o","true","o","","","","","","","","","","",""
"image-keyboard-response","178","749173","0.0-2.0-11.0-0.76","1359","","","stimuli/Set_1_rs/150a.jpg","67","","","TR","o","true","o","","","","","","","","","","",""
"image-keyboard-response","179","753676","0.0-2.0-11.0-0.77","1127.5999999046326","","","stimuli/Set_1_rs/038a.jpg","67","","","TR","o","true","o","","","","","","","","","","",""
"image-keyboard-response","180","758179","0.0-2.0-11.0-0.78","1888.9000000953674","","","stimuli/Set_1_rs/022b.jpg","66","","","TL","s","true","s","","","","","","","","","","",""
"image-keyboard-response","181","762682","0.0-2.0-11.0-0.79","986.1999998092651","","","stimuli/Set_1_rs/018a.jpg","77","","","TF","n","true","n","","","","","","","","","","",""
"image-keyboard-response","182","767185","0.0-2.0-11.0-0.80","802.9000000953674","","","stimuli/Set_1_rs/081a.jpg","77","","","TF","n","true","n","","","","","","","","","","",""
"image-keyboard-response","183","771687","0.0-2.0-11.0-0.81","1115.3000001907349","","","stimuli/Set_1_rs/107a.jpg","67","","","TR","o","true","o","","","","","","","","","","",""
"image-keyboard-response","184","776190","0.0-2.0-11.0-0.82","949","","","stimuli/Set_1_rs/101b.jpg","67","","","TL","s","false","o","","","","","","","","","","",""
"image-keyboard-response","185","780693","0.0-2.0-11.0-0.83","2334.199999809265","","","stimuli/Set_1_rs/178b.jpg","66","","","TL","s","true","s","","","","","","","","","","",""
"image-keyboard-response","186","785196","0.0-2.0-11.0-0.84","2247.6000003814697","","","stimuli/Set_1_rs/103b.jpg","67","","","TL","s","false","o","","","","","","","","","","",""
"image-keyboard-response","187","789699","0.0-2.0-11.0-0.85","1856.4000000953674","","","stimuli/Set_1_rs/116b.jpg","66","","","TL","s","true","s","","","","","","","","","","",""
"image-keyboard-response","188","794202","0.0-2.0-11.0-0.86","888.8000001907349","","","stimuli/Set_1_rs/122a.jpg","77","","","TF","n","true","n","","","","","","","","","","",""
"image-keyboard-response","189","798705","0.0-2.0-11.0-0.87","1009.7999997138977","","","stimuli/Set_1_rs/044a.jpg","67","","","TR","o","true","o","","","","","","","","","","",""
"image-keyboard-response","190","803208","0.0-2.0-11.0-0.88","1770.6999998092651","","","stimuli/Set_1_rs/049a.jpg","66","","","TR","o","false","s","","","","","","","","","","",""
"image-keyboard-response","191","807712","0.0-2.0-11.0-0.89","931.5","","","stimuli/Set_1_rs/118a.jpg","67","","","TR","o","true","o","","","","","","","","","","",""
"image-keyboard-response","192","812214","0.0-2.0-11.0-0.90","1084.9000000953674","","","stimuli/Set_1_rs/040a.jpg","67","","","TR","o","true","o","","","","","","","","","","",""
"image-keyboard-response","193","816718","0.0-2.0-11.0-0.91","1158.2000002861023","","","stimuli/Set_1_rs/011b.jpg","67","","","TL","s","false","o","","","","","","","","","","",""
"image-keyboard-response","194","821220","0.0-2.0-11.0-0.92","862.6000003814697","","","stimuli/Set_1_rs/087a.jpg","77","","","TF","n","true","n","","","","","","","","","","",""
"image-keyboard-response","195","825722","0.0-2.0-11.0-0.93","2312.300000190735","","","stimuli/Set_1_rs/063a.jpg","67","","","TR","o","true","o","","","","","","","","","","",""
"image-keyboard-response","196","830224","0.0-2.0-11.0-0.94","1201.7999997138977","","","stimuli/Set_1_rs/098b.jpg","77","","","TL","s","false","n","","","","","","","","","","",""
"image-keyboard-response","197","834727","0.0-2.0-11.0-0.95","2075.4000000953674","","","stimuli/Set_1_rs/058a.jpg","67","","","TR","o","true","o","","","","","","","","","","",""
"html-keyboard-response","198","840270","0.0-3.0","5541","","","<p>Vége a feladatnak. Köszönjük a részvételt!</p>","32","","","","","","","28","3","2","17","9","7","1","0","27","0.8127705627705628","0.2727272727272727"
