"trial_type","trial_index","time_elapsed","internal_node_id","rt","responses","success","stimulus","key_press","cond","enc_response","condition","correct_response","correct","rec_response","targ_old","targ_sim","targ_new","lure_old","lure_sim","lure_new","foil_old","foil_sim","foil_new","recognition_ratio","ldi"
"pavlovia","0","4","0.0-0.0","","","","","","","","","","","","","","","","","","","","","",""
"survey-multi-choice","1","7590","0.0-1.0","7583","{""Q0"":""Igen"",""Q1"":""Igen""}","","","","","","","","","","","","","","","","","","","",""
"survey-text","2","14171","0.0-2.0-0.0","6578.699999988079","{""Q0"":""384825""}","","","","","","","","","","","","","","","","","","","",""
"fullscreen","3","16168","0.0-2.0-1.0","","","true","","","","","","","","","","","","","","","","","","",""
"html-keyboard-response","4","22712","0.0-2.0-2.0","6542","","","<p>Üdvözöljük! Ez a feladat két részből áll, és összesen 10-15 percet vesz igénybe.</p>","190","","","","","","","","","","","","","","","","",""
"html-keyboard-response","5","77669","0.0-2.0-3.0-0.0","54956.79999998212","","","<p>Az első részben tárgyakat lát majd a képernyőn, egymás után fognak megjelenni.<br>Az Ön feladata eldönteni, hogy a tárgyak <i>beltéri vagy kültéri</i> tárgyak-e.</p>						   <p>Amennyiben a tárgyat általában beltéren látja, nyomja le a <b>C</b> billentyűt. Amennyiben a tárgyat általában kültéren látja, nyomja le az <b>M</b> billentyűt.</p>						   <p>Ebben a feladatban nincsen mindig egyértelműen jó megoldás. Válaszoljon legjobb tudása szerint. A válaszadásra 2 másodperce lesz.","32","","","","","","","","","","","","","","","","",""
"html-keyboard-response","6","79672","0.0-2.0-3.0-1.0","null","","","<p>Kezdődik a gyakorlás...</p>","null","","","","","","","","","","","","","","","","",""
"image-keyboard-response","7","81675","0.0-2.0-4.0-0.0","null","","","stimuli/Set_2_rs/165b.jpg","null","-","null","","","","","","","","","","","","","","",""
"html-keyboard-response","8","87653","0.0-2.0-4.0-1.0","5475.699999988079","","","<p>Az Ön válasza:</p><p>Nem adott választ.</p>","32","","","","","","","","","","","","","","","","",""
"image-keyboard-response","9","89658","0.0-2.0-4.0-0.1","null","","","stimuli/Set_2_rs/034a.jpg","null","-","null","","","","","","","","","","","","","","",""
"html-keyboard-response","10","94853","0.0-2.0-4.0-1.1","4693.5","","","<p>Az Ön válasza:</p><p>Nem adott választ.</p>","32","","","","","","","","","","","","","","","","",""
"image-keyboard-response","11","96855","0.0-2.0-4.0-0.2","1405.9000000059605","","","stimuli/Set_2_rs/049a.jpg","67","SL","indoor","","","","","","","","","","","","","","",""
"html-keyboard-response","12","98693","0.0-2.0-4.0-1.2","1335.699999988079","","","<p>Az Ön válasza:</p><p>Beltéri.</p>","32","","","","","","","","","","","","","","","","",""
"image-keyboard-response","13","100695","0.0-2.0-4.0-0.3","1198.699999988079","","","stimuli/Set_2_rs/028a.jpg","67","SR","indoor","","","","","","","","","","","","","","",""
"html-keyboard-response","14","103461","0.0-2.0-4.0-1.3","2264.2000000178814","","","<p>Az Ön válasza:</p><p>Beltéri.</p>","32","","","","","","","","","","","","","","","","",""
"image-keyboard-response","15","105464","0.0-2.0-4.0-0.4","1422.2000000178814","","","stimuli/Set_2_rs/135a.jpg","67","SL","indoor","","","","","","","","","","","","","","",""
"html-keyboard-response","16","106549","0.0-2.0-4.0-1.4","582.5","","","<p>Az Ön válasza:</p><p>Beltéri.</p>","32","","","","","","","","","","","","","","","","",""
"image-keyboard-response","17","108552","0.0-2.0-4.0-0.5","null","","","stimuli/Set_2_rs/137a.jpg","null","SR","null","","","","","","","","","","","","","","",""
"html-keyboard-response","18","110917","0.0-2.0-4.0-1.5","1862.800000011921","","","<p>Az Ön válasza:</p><p>Nem adott választ.</p>","32","","","","","","","","","","","","","","","","",""
"html-keyboard-response","19","113077","0.0-2.0-5.0-0.0","2159.100000023842","","","<p>Ez volt a gyakorlás. A feladat következik. A feladat alatt már nem kap visszajelzést.</p>","32","","","","","","","","","","","","","","","","",""
"html-keyboard-response","20","115079","0.0-2.0-5.0-1.0","null","","","<p>Kezdődik a feladat...</p>","null","","","","","","","","","","","","","","","","",""
"image-keyboard-response","21","117582","0.0-2.0-6.0-0.0","1131.4000000059605","","","stimuli/Set_1_rs/157a.jpg","67","","indoor","SR","","","","","","","","","","","","","",""
"image-keyboard-response","22","120084","0.0-2.0-6.0-0.1","1717.4000000059605","","","stimuli/Set_1_rs/009a.jpg","67","","indoor","SR","","","","","","","","","","","","","",""
"image-keyboard-response","23","122587","0.0-2.0-6.0-0.2","2030.800000011921","","","stimuli/Set_1_rs/059a.jpg","67","","indoor","SL","","","","","","","","","","","","","",""
"image-keyboard-response","24","125090","0.0-2.0-6.0-0.3","1560.3999999761581","","","stimuli/Set_1_rs/024a.jpg","77","","outdoor","SR","","","","","","","","","","","","","",""
"image-keyboard-response","25","127592","0.0-2.0-6.0-0.4","769.4000000059605","","","stimuli/Set_1_rs/101a.jpg","67","","indoor","SL","","","","","","","","","","","","","",""
"image-keyboard-response","26","130095","0.0-2.0-6.0-0.5","987.1999999880791","","","stimuli/Set_1_rs/137a.jpg","77","","outdoor","SR","","","","","","","","","","","","","",""
"image-keyboard-response","27","132597","0.0-2.0-6.0-0.6","1413.1000000238419","","","stimuli/Set_1_rs/011a.jpg","77","","outdoor","SL","","","","","","","","","","","","","",""
"image-keyboard-response","28","135099","0.0-2.0-6.0-0.7","943.5","","","stimuli/Set_1_rs/128a.jpg","67","","indoor","SL","","","","","","","","","","","","","",""
"image-keyboard-response","29","137601","0.0-2.0-6.0-0.8","1017.5","","","stimuli/Set_1_rs/083a.jpg","67","","indoor","SL","","","","","","","","","","","","","",""
"image-keyboard-response","30","140103","0.0-2.0-6.0-0.9","1091.5","","","stimuli/Set_1_rs/136a.jpg","67","","indoor","SR","","","","","","","","","","","","","",""
"image-keyboard-response","31","142605","0.0-2.0-6.0-0.10","988.6999999880791","","","stimuli/Set_1_rs/103a.jpg","67","","indoor","SL","","","","","","","","","","","","","",""
"image-keyboard-response","32","145108","0.0-2.0-6.0-0.11","774.7999999821186","","","stimuli/Set_1_rs/086a.jpg","67","","indoor","SR","","","","","","","","","","","","","",""
"image-keyboard-response","33","147609","0.0-2.0-6.0-0.12","1104.5","","","stimuli/Set_1_rs/099a.jpg","77","","outdoor","SL","","","","","","","","","","","","","",""
"image-keyboard-response","34","150111","0.0-2.0-6.0-0.13","699.1999999880791","","","stimuli/Set_1_rs/178a.jpg","67","","indoor","SL","","","","","","","","","","","","","",""
"image-keyboard-response","35","152613","0.0-2.0-6.0-0.14","1060.800000011921","","","stimuli/Set_1_rs/134a.jpg","67","","indoor","SL","","","","","","","","","","","","","",""
"image-keyboard-response","36","155116","0.0-2.0-6.0-0.15","830.6999999880791","","","stimuli/Set_1_rs/156a.jpg","67","","indoor","SL","","","","","","","","","","","","","",""
"image-keyboard-response","37","157618","0.0-2.0-6.0-0.16","744.4000000059605","","","stimuli/Set_1_rs/054a.jpg","67","","indoor","SR","","","","","","","","","","","","","",""
"image-keyboard-response","38","160120","0.0-2.0-6.0-0.17","866.1999999880791","","","stimuli/Set_1_rs/092a.jpg","77","","outdoor","SL","","","","","","","","","","","","","",""
"image-keyboard-response","39","162622","0.0-2.0-6.0-0.18","1547.5999999940395","","","stimuli/Set_1_rs/031a.jpg","67","","indoor","SL","","","","","","","","","","","","","",""
"image-keyboard-response","40","165124","0.0-2.0-6.0-0.19","1030.5","","","stimuli/Set_1_rs/013a.jpg","67","","indoor","SL","","","","","","","","","","","","","",""
"image-keyboard-response","41","167626","0.0-2.0-6.0-0.20","1024.4000000059605","","","stimuli/Set_1_rs/075a.jpg","67","","indoor","SL","","","","","","","","","","","","","",""
"image-keyboard-response","42","170128","0.0-2.0-6.0-0.21","1146.2000000178814","","","stimuli/Set_1_rs/150a.jpg","67","","indoor","SR","","","","","","","","","","","","","",""
"image-keyboard-response","43","172630","0.0-2.0-6.0-0.22","1043.4000000059605","","","stimuli/Set_1_rs/094a.jpg","67","","indoor","SL","","","","","","","","","","","","","",""
"image-keyboard-response","44","175132","0.0-2.0-6.0-0.23","1037.699999988079","","","stimuli/Set_1_rs/090a.jpg","77","","outdoor","SL","","","","","","","","","","","","","",""
"image-keyboard-response","45","177635","0.0-2.0-6.0-0.24","1271.5","","","stimuli/Set_1_rs/192a.jpg","67","","indoor","SR","","","","","","","","","","","","","",""
"image-keyboard-response","46","180137","0.0-2.0-6.0-0.25","832.9000000059605","","","stimuli/Set_1_rs/116a.jpg","67","","indoor","SL","","","","","","","","","","","","","",""
"image-keyboard-response","47","182640","0.0-2.0-6.0-0.26","1209.7000000178814","","","stimuli/Set_1_rs/044a.jpg","67","","indoor","SR","","","","","","","","","","","","","",""
"image-keyboard-response","48","185142","0.0-2.0-6.0-0.27","1315.800000011921","","","stimuli/Set_1_rs/114a.jpg","67","","indoor","SL","","","","","","","","","","","","","",""
"image-keyboard-response","49","187644","0.0-2.0-6.0-0.28","1389.2999999821186","","","stimuli/Set_1_rs/112a.jpg","67","","indoor","SR","","","","","","","","","","","","","",""
"image-keyboard-response","50","190146","0.0-2.0-6.0-0.29","967.3000000119209","","","stimuli/Set_1_rs/052a.jpg","67","","indoor","SL","","","","","","","","","","","","","",""
"image-keyboard-response","51","192648","0.0-2.0-6.0-0.30","1472.7999999821186","","","stimuli/Set_1_rs/058a.jpg","67","","indoor","SR","","","","","","","","","","","","","",""
"image-keyboard-response","52","195150","0.0-2.0-6.0-0.31","1083.199999988079","","","stimuli/Set_1_rs/023a.jpg","77","","outdoor","SL","","","","","","","","","","","","","",""
"image-keyboard-response","53","197652","0.0-2.0-6.0-0.32","1397.800000011921","","","stimuli/Set_1_rs/030a.jpg","67","","indoor","SR","","","","","","","","","","","","","",""
"image-keyboard-response","54","200153","0.0-2.0-6.0-0.33","1440","","","stimuli/Set_1_rs/091a.jpg","77","","outdoor","SR","","","","","","","","","","","","","",""
"image-keyboard-response","55","202656","0.0-2.0-6.0-0.34","1098","","","stimuli/Set_1_rs/147a.jpg","77","","outdoor","SR","","","","","","","","","","","","","",""
"image-keyboard-response","56","205158","0.0-2.0-6.0-0.35","1076.2000000178814","","","stimuli/Set_1_rs/063a.jpg","77","","outdoor","SR","","","","","","","","","","","","","",""
"image-keyboard-response","57","207659","0.0-2.0-6.0-0.36","1278","","","stimuli/Set_1_rs/040a.jpg","77","","outdoor","SR","","","","","","","","","","","","","",""
"image-keyboard-response","58","210161","0.0-2.0-6.0-0.37","888.0999999940395","","","stimuli/Set_1_rs/038a.jpg","67","","indoor","SR","","","","","","","","","","","","","",""
"image-keyboard-response","59","212663","0.0-2.0-6.0-0.38","897.9000000059605","","","stimuli/Set_1_rs/100a.jpg","77","","outdoor","SL","","","","","","","","","","","","","",""
"image-keyboard-response","60","215165","0.0-2.0-6.0-0.39","1067.800000011921","","","stimuli/Set_1_rs/109a.jpg","67","","indoor","SR","","","","","","","","","","","","","",""
"image-keyboard-response","61","217667","0.0-2.0-6.0-0.40","1286.199999988079","","","stimuli/Set_1_rs/191a.jpg","67","","indoor","SR","","","","","","","","","","","","","",""
"image-keyboard-response","62","220169","0.0-2.0-6.0-0.41","944.0999999940395","","","stimuli/Set_1_rs/061a.jpg","77","","outdoor","SL","","","","","","","","","","","","","",""
"image-keyboard-response","63","222672","0.0-2.0-6.0-0.42","1097.7000000178814","","","stimuli/Set_1_rs/162a.jpg","67","","indoor","SR","","","","","","","","","","","","","",""
"image-keyboard-response","64","225174","0.0-2.0-6.0-0.43","1203.5","","","stimuli/Set_1_rs/046a.jpg","77","","outdoor","SR","","","","","","","","","","","","","",""
"image-keyboard-response","65","227676","0.0-2.0-6.0-0.44","1133.5","","","stimuli/Set_1_rs/155a.jpg","77","","outdoor","SL","","","","","","","","","","","","","",""
"image-keyboard-response","66","230177","0.0-2.0-6.0-0.45","1288","","","stimuli/Set_1_rs/010a.jpg","77","","outdoor","SR","","","","","","","","","","","","","",""
"image-keyboard-response","67","232679","0.0-2.0-6.0-0.46","1553.7000000178814","","","stimuli/Set_1_rs/142a.jpg","77","","outdoor","SR","","","","","","","","","","","","","",""
"image-keyboard-response","68","235182","0.0-2.0-6.0-0.47","1547.800000011921","","","stimuli/Set_1_rs/045a.jpg","77","","outdoor","SL","","","","","","","","","","","","","",""
"image-keyboard-response","69","237684","0.0-2.0-6.0-0.48","1509","","","stimuli/Set_1_rs/070a.jpg","77","","outdoor","SR","","","","","","","","","","","","","",""
"image-keyboard-response","70","240186","0.0-2.0-6.0-0.49","1103.5","","","stimuli/Set_1_rs/022a.jpg","77","","outdoor","SL","","","","","","","","","","","","","",""
"image-keyboard-response","71","242689","0.0-2.0-6.0-0.50","1224.5999999940395","","","stimuli/Set_1_rs/021a.jpg","67","","indoor","SR","","","","","","","","","","","","","",""
"image-keyboard-response","72","245191","0.0-2.0-6.0-0.51","1026.300000011921","","","stimuli/Set_1_rs/098a.jpg","67","","indoor","SL","","","","","","","","","","","","","",""
"image-keyboard-response","73","247694","0.0-2.0-6.0-0.52","796.3000000119209","","","stimuli/Set_1_rs/008a.jpg","67","","indoor","SL","","","","","","","","","","","","","",""
"image-keyboard-response","74","250195","0.0-2.0-6.0-0.53","1893.5999999940395","","","stimuli/Set_1_rs/012a.jpg","67","","indoor","SL","","","","","","","","","","","","","",""
"image-keyboard-response","75","252697","0.0-2.0-6.0-0.54","1071.3999999761581","","","stimuli/Set_1_rs/153a.jpg","67","","indoor","SR","","","","","","","","","","","","","",""
"image-keyboard-response","76","255199","0.0-2.0-6.0-0.55","1354","","","stimuli/Set_1_rs/068a.jpg","77","","outdoor","SL","","","","","","","","","","","","","",""
"image-keyboard-response","77","257702","0.0-2.0-6.0-0.56","948.0999999940395","","","stimuli/Set_1_rs/140a.jpg","67","","indoor","SL","","","","","","","","","","","","","",""
"image-keyboard-response","78","260203","0.0-2.0-6.0-0.57","1213.5999999940395","","","stimuli/Set_1_rs/029a.jpg","67","","indoor","SR","","","","","","","","","","","","","",""
"image-keyboard-response","79","262706","0.0-2.0-6.0-0.58","1495","","","stimuli/Set_1_rs/049a.jpg","77","","outdoor","SR","","","","","","","","","","","","","",""
"image-keyboard-response","80","265208","0.0-2.0-6.0-0.59","752.9000000059605","","","stimuli/Set_1_rs/180a.jpg","67","","indoor","SR","","","","","","","","","","","","","",""
"image-keyboard-response","81","267710","0.0-2.0-6.0-0.60","970.6999999880791","","","stimuli/Set_1_rs/033a.jpg","67","","indoor","SL","","","","","","","","","","","","","",""
"image-keyboard-response","82","270212","0.0-2.0-6.0-0.61","965.4000000059605","","","stimuli/Set_1_rs/119a.jpg","67","","indoor","SL","","","","","","","","","","","","","",""
"image-keyboard-response","83","272714","0.0-2.0-6.0-0.62","798.5","","","stimuli/Set_1_rs/118a.jpg","67","","indoor","SR","","","","","","","","","","","","","",""
"image-keyboard-response","84","275216","0.0-2.0-6.0-0.63","1849","","","stimuli/Set_1_rs/107a.jpg","67","","indoor","SR","","","","","","","","","","","","","",""
"html-keyboard-response","85","278260","0.0-2.0-7.0","3043.7999999821186","","","<p>Vége a feladat első részének. Tartson egy pár perces szünetet.</p>","32","","","","","","","","","","","","","","","","",""
"html-keyboard-response","86","305924","0.0-2.0-8.0-0.0","27663.09999999404","","","<p>A következőkben ismét tárgyak jelennek majd meg a képernyőn, egymás után.<br>Az Ön feladata eldönteni, látta-e már ezeket a tárgyakat a vizsgálat első felében.</p>		        			<p>Amennyiben pontosan ugyanezt a tárgyat látta (a tárgy <i>régi</i>), nyomja le a <b>C</b> billentyűt.</p>		        			<p>Amennyiben hasonló tárgyat látott (a tárgy <i>hasonló</i>), nyomja le a <b>B</b> billentyűt.</p>		        			<p>Amennyiben nem látta ezt a tárgyat az első részben (a tárgy <i>új</i>), nyomja le az <b>M</b> billentyűt.</p>","32","","","","","","","","","","","","","","","","",""
"html-keyboard-response","87","307926","0.0-2.0-8.0-1.0","null","","","<p>Kezdődik a gyakorlás...</p>","null","","","","","","","","","","","","","","","","",""
"image-keyboard-response","88","311928","0.0-2.0-9.0-0.0","null","","","stimuli/Set_2_rs/049b.jpg","null","","","TL","l","false","null","","","","","","","","","","",""
"html-keyboard-response","89","352852","0.0-2.0-9.0-1.0","40921.59999999404","","","<p>A helyes válasz: Hasonló.</p><p>Nem adott választ.</p>","32","","","","","","","","","","","","","","","","",""
"image-keyboard-response","90","356855","0.0-2.0-9.0-0.1","2717.2000000178814","","","stimuli/Set_2_rs/018b.jpg","66","","","TF","n","false","s","","","","","","","","","","",""
"html-keyboard-response","91","364467","0.0-2.0-9.0-1.1","7611.199999988079","","","<p>A helyes válasz: Új.</p><p>Az Ön válasza: Hasonló.</p>","32","","","","","","","","","","","","","","","","",""
"image-keyboard-response","92","368470","0.0-2.0-9.0-0.2","2333.5999999940395","","","stimuli/Set_2_rs/028a.jpg","67","","","TR","o","true","o","","","","","","","","","","",""
"html-keyboard-response","93","370915","0.0-2.0-9.0-1.2","2444.2000000178814","","","<p>A helyes válasz: Régi.</p><p>Az Ön válasza: Régi.</p>","32","","","","","","","","","","","","","","","","",""
"image-keyboard-response","94","374917","0.0-2.0-9.0-0.3","2702.2000000178814","","","stimuli/Set_2_rs/137a.jpg","67","","","TR","o","true","o","","","","","","","","","","",""
"html-keyboard-response","95","376131","0.0-2.0-9.0-1.3","1212.9000000059605","","","<p>A helyes válasz: Régi.</p><p>Az Ön válasza: Régi.</p>","32","","","","","","","","","","","","","","","","",""
"image-keyboard-response","96","380134","0.0-2.0-9.0-0.4","1102.0999999940395","","","stimuli/Set_2_rs/135b.jpg","67","","","TL","l","false","o","","","","","","","","","","",""
"html-keyboard-response","97","387427","0.0-2.0-9.0-1.4","7291.4000000059605","","","<p>A helyes válasz: Hasonló.</p><p>Az Ön válasza: Régi.</p>","32","","","","","","","","","","","","","","","","",""
"image-keyboard-response","98","391429","0.0-2.0-9.0-0.5","3213.7999999821186","","","stimuli/Set_2_rs/019a.jpg","66","","","TF","n","false","s","","","","","","","","","","",""
"html-keyboard-response","99","394322","0.0-2.0-9.0-1.5","2892","","","<p>A helyes válasz: Új.</p><p>Az Ön válasza: Hasonló.</p>","32","","","","","","","","","","","","","","","","",""
"html-keyboard-response","100","402579","0.0-2.0-10.0-0.0","8255.40000000596","","","<p>Ez volt a gyakorlás. A feladat következik. A feladat alatt már nem kap visszajelzést.</p>","32","","","","","","","","","","","","","","","","",""
"html-keyboard-response","101","404580","0.0-2.0-10.0-1.0","null","","","<p>Kezdődik a feladat...</p>","null","","","","","","","","","","","","","","","","",""
"image-keyboard-response","102","409083","0.0-2.0-11.0-0.0","1884","","","stimuli/Set_1_rs/181a.jpg","67","","","TF","n","false","o","","","","","","","","","","",""
"image-keyboard-response","103","413586","0.0-2.0-11.0-0.1","3204.7000000178814","","","stimuli/Set_1_rs/152a.jpg","77","","","TF","n","true","n","","","","","","","","","","",""
"image-keyboard-response","104","418088","0.0-2.0-11.0-0.2","2686.300000011921","","","stimuli/Set_1_rs/090b.jpg","77","","","TL","s","false","n","","","","","","","","","","",""
"image-keyboard-response","105","422591","0.0-2.0-11.0-0.3","2423.7000000178814","","","stimuli/Set_1_rs/126a.jpg","66","","","TF","n","false","s","","","","","","","","","","",""
"image-keyboard-response","106","427093","0.0-2.0-11.0-0.4","1281","","","stimuli/Set_1_rs/068b.jpg","67","","","TL","s","false","o","","","","","","","","","","",""
"image-keyboard-response","107","431597","0.0-2.0-11.0-0.5","2170.5999999940395","","","stimuli/Set_1_rs/054a.jpg","67","","","TR","o","true","o","","","","","","","","","","",""
"image-keyboard-response","108","436100","0.0-2.0-11.0-0.6","1443.6000000238419","","","stimuli/Set_1_rs/162a.jpg","67","","","TR","o","true","o","","","","","","","","","","",""
"image-keyboard-response","109","440603","0.0-2.0-11.0-0.7","2060.2999999821186","","","stimuli/Set_1_rs/019a.jpg","77","","","TF","n","true","n","","","","","","","","","","",""
"image-keyboard-response","110","445106","0.0-2.0-11.0-0.8","1413.199999988079","","","stimuli/Set_1_rs/119b.jpg","67","","","TL","s","false","o","","","","","","","","","","",""
"image-keyboard-response","111","449608","0.0-2.0-11.0-0.9","1150.5","","","stimuli/Set_1_rs/052b.jpg","67","","","TL","s","false","o","","","","","","","","","","",""
"image-keyboard-response","112","454112","0.0-2.0-11.0-0.10","2120.199999988079","","","stimuli/Set_1_rs/135a.jpg","77","","","TF","n","true","n","","","","","","","","","","",""
"image-keyboard-response","113","458615","0.0-2.0-11.0-0.11","1280.8999999761581","","","stimuli/Set_1_rs/004a.jpg","77","","","TF","n","true","n","","","","","","","","","","",""
"image-keyboard-response","114","463118","0.0-2.0-11.0-0.12","2025.300000011921","","","stimuli/Set_1_rs/072a.jpg","77","","","TF","n","true","n","","","","","","","","","","",""
"image-keyboard-response","115","467621","0.0-2.0-11.0-0.13","1265.9000000059605","","","stimuli/Set_1_rs/028a.jpg","77","","","TF","n","true","n","","","","","","","","","","",""
"image-keyboard-response","116","472124","0.0-2.0-11.0-0.14","1067.199999988079","","","stimuli/Set_1_rs/091a.jpg","67","","","TR","o","true","o","","","","","","","","","","",""
"image-keyboard-response","117","476627","0.0-2.0-11.0-0.15","1267.7000000178814","","","stimuli/Set_1_rs/108a.jpg","77","","","TF","n","true","n","","","","","","","","","","",""
"image-keyboard-response","118","481130","0.0-2.0-11.0-0.16","1341","","","stimuli/Set_1_rs/146a.jpg","77","","","TF","n","true","n","","","","","","","","","","",""
"image-keyboard-response","119","485633","0.0-2.0-11.0-0.17","1158.300000011921","","","stimuli/Set_1_rs/013b.jpg","67","","","TL","s","false","o","","","","","","","","","","",""
"image-keyboard-response","120","490136","0.0-2.0-11.0-0.18","1919.4000000059605","","","stimuli/Set_1_rs/141a.jpg","77","","","TF","n","true","n","","","","","","","","","","",""
"image-keyboard-response","121","494639","0.0-2.0-11.0-0.19","1096.300000011921","","","stimuli/Set_1_rs/156b.jpg","67","","","TL","s","false","o","","","","","","","","","","",""
"image-keyboard-response","122","499143","0.0-2.0-11.0-0.20","1392.7000000178814","","","stimuli/Set_1_rs/024a.jpg","67","","","TR","o","true","o","","","","","","","","","","",""
"image-keyboard-response","123","503645","0.0-2.0-11.0-0.21","1257.3999999761581","","","stimuli/Set_1_rs/046a.jpg","67","","","TR","o","true","o","","","","","","","","","","",""
"image-keyboard-response","124","508148","0.0-2.0-11.0-0.22","1842.699999988079","","","stimuli/Set_1_rs/100b.jpg","66","","","TL","s","true","s","","","","","","","","","","",""
"image-keyboard-response","125","512651","0.0-2.0-11.0-0.23","1675.699999988079","","","stimuli/Set_1_rs/080a.jpg","66","","","TF","n","false","s","","","","","","","","","","",""
"image-keyboard-response","126","517154","0.0-2.0-11.0-0.24","1156.9000000059605","","","stimuli/Set_1_rs/094b.jpg","67","","","TL","s","false","o","","","","","","","","","","",""
"image-keyboard-response","127","521657","0.0-2.0-11.0-0.25","1853.800000011921","","","stimuli/Set_1_rs/190a.jpg","77","","","TF","n","true","n","","","","","","","","","","",""
"image-keyboard-response","128","526160","0.0-2.0-11.0-0.26","1271","","","stimuli/Set_1_rs/137a.jpg","67","","","TR","o","true","o","","","","","","","","","","",""
"image-keyboard-response","129","530663","0.0-2.0-11.0-0.27","1503.9000000059605","","","stimuli/Set_1_rs/180a.jpg","77","","","TR","o","false","n","","","","","","","","","","",""
"image-keyboard-response","130","535166","0.0-2.0-11.0-0.28","2776.5999999940395","","","stimuli/Set_1_rs/134b.jpg","66","","","TL","s","true","s","","","","","","","","","","",""
"image-keyboard-response","131","539669","0.0-2.0-11.0-0.29","1569.300000011921","","","stimuli/Set_1_rs/088a.jpg","77","","","TF","n","true","n","","","","","","","","","","",""
"image-keyboard-response","132","544172","0.0-2.0-11.0-0.30","1130.4000000059605","","","stimuli/Set_1_rs/165a.jpg","77","","","TF","n","true","n","","","","","","","","","","",""
"image-keyboard-response","133","548675","0.0-2.0-11.0-0.31","1171.4000000059605","","","stimuli/Set_1_rs/075b.jpg","77","","","TL","s","false","n","","","","","","","","","","",""
"image-keyboard-response","134","553178","0.0-2.0-11.0-0.32","1516","","","stimuli/Set_1_rs/191a.jpg","67","","","TR","o","true","o","","","","","","","","","","",""
"image-keyboard-response","135","557681","0.0-2.0-11.0-0.33","1029.300000011921","","","stimuli/Set_1_rs/112a.jpg","67","","","TR","o","true","o","","","","","","","","","","",""
"image-keyboard-response","136","562184","0.0-2.0-11.0-0.34","1230","","","stimuli/Set_1_rs/171a.jpg","77","","","TF","n","true","n","","","","","","","","","","",""
"image-keyboard-response","137","566687","0.0-2.0-11.0-0.35","902.8999999761581","","","stimuli/Set_1_rs/021a.jpg","67","","","TR","o","true","o","","","","","","","","","","",""
"image-keyboard-response","138","571191","0.0-2.0-11.0-0.36","943.7999999821186","","","stimuli/Set_1_rs/157a.jpg","67","","","TR","o","true","o","","","","","","","","","","",""
"image-keyboard-response","139","575694","0.0-2.0-11.0-0.37","1448.5999999940395","","","stimuli/Set_1_rs/059b.jpg","77","","","TL","s","false","n","","","","","","","","","","",""
"image-keyboard-response","140","580196","0.0-2.0-11.0-0.38","2225.699999988079","","","stimuli/Set_1_rs/153a.jpg","66","","","TR","o","false","s","","","","","","","","","","",""
"image-keyboard-response","141","584700","0.0-2.0-11.0-0.39","1483","","","stimuli/Set_1_rs/002a.jpg","77","","","TF","n","true","n","","","","","","","","","","",""
"image-keyboard-response","142","589203","0.0-2.0-11.0-0.40","1139.5","","","stimuli/Set_1_rs/041a.jpg","77","","","TF","n","true","n","","","","","","","","","","",""
"image-keyboard-response","143","593705","0.0-2.0-11.0-0.41","2124.5","","","stimuli/Set_1_rs/012b.jpg","66","","","TL","s","true","s","","","","","","","","","","",""
"image-keyboard-response","144","598207","0.0-2.0-11.0-0.42","982.3000000119209","","","stimuli/Set_1_rs/083b.jpg","67","","","TL","s","false","o","","","","","","","","","","",""
"image-keyboard-response","145","602710","0.0-2.0-11.0-0.43","1279.699999988079","","","stimuli/Set_1_rs/051a.jpg","77","","","TF","n","true","n","","","","","","","","","","",""
"image-keyboard-response","146","607213","0.0-2.0-11.0-0.44","1001.1000000238419","","","stimuli/Set_1_rs/168a.jpg","77","","","TF","n","true","n","","","","","","","","","","",""
"image-keyboard-response","147","611716","0.0-2.0-11.0-0.45","1553.800000011921","","","stimuli/Set_1_rs/155b.jpg","77","","","TL","s","false","n","","","","","","","","","","",""
"image-keyboard-response","148","616220","0.0-2.0-11.0-0.46","1721.2000000178814","","","stimuli/Set_1_rs/045b.jpg","67","","","TL","s","false","o","","","","","","","","","","",""
"image-keyboard-response","149","620724","0.0-2.0-11.0-0.47","1250.2999999821186","","","stimuli/Set_1_rs/031b.jpg","77","","","TL","s","false","n","","","","","","","","","","",""
"image-keyboard-response","150","625227","0.0-2.0-11.0-0.48","1531.0999999940395","","","stimuli/Set_1_rs/136a.jpg","67","","","TR","o","true","o","","","","","","","","","","",""
"image-keyboard-response","151","629730","0.0-2.0-11.0-0.49","1123.9000000059605","","","stimuli/Set_1_rs/053a.jpg","77","","","TF","n","true","n","","","","","","","","","","",""
"image-keyboard-response","152","634234","0.0-2.0-11.0-0.50","2348.5","","","stimuli/Set_1_rs/061b.jpg","66","","","TL","s","true","s","","","","","","","","","","",""
"image-keyboard-response","153","638737","0.0-2.0-11.0-0.51","1045.199999988079","","","stimuli/Set_1_rs/062a.jpg","77","","","TF","n","true","n","","","","","","","","","","",""
"image-keyboard-response","154","643240","0.0-2.0-11.0-0.52","1054","","","stimuli/Set_1_rs/009a.jpg","77","","","TR","o","false","n","","","","","","","","","","",""
"image-keyboard-response","155","647743","0.0-2.0-11.0-0.53","934.5999999940395","","","stimuli/Set_1_rs/099b.jpg","67","","","TL","s","false","o","","","","","","","","","","",""
"image-keyboard-response","156","652247","0.0-2.0-11.0-0.54","1839.5","","","stimuli/Set_1_rs/030a.jpg","66","","","TR","o","false","s","","","","","","","","","","",""
"image-keyboard-response","157","656750","0.0-2.0-11.0-0.55","1384","","","stimuli/Set_1_rs/029a.jpg","67","","","TR","o","true","o","","","","","","","","","","",""
"image-keyboard-response","158","661253","0.0-2.0-11.0-0.56","1280.800000011921","","","stimuli/Set_1_rs/140b.jpg","77","","","TL","s","false","n","","","","","","","","","","",""
"image-keyboard-response","159","665756","0.0-2.0-11.0-0.57","905.8000000119209","","","stimuli/Set_1_rs/182a.jpg","77","","","TF","n","true","n","","","","","","","","","","",""
"image-keyboard-response","160","670258","0.0-2.0-11.0-0.58","1362.800000011921","","","stimuli/Set_1_rs/151a.jpg","77","","","TF","n","true","n","","","","","","","","","","",""
"image-keyboard-response","161","674762","0.0-2.0-11.0-0.59","1052.2000000178814","","","stimuli/Set_1_rs/142a.jpg","67","","","TR","o","true","o","","","","","","","","","","",""
"image-keyboard-response","162","679265","0.0-2.0-11.0-0.60","1092.4000000059605","","","stimuli/Set_1_rs/070a.jpg","66","","","TR","o","false","s","","","","","","","","","","",""
"image-keyboard-response","163","683767","0.0-2.0-11.0-0.61","1133.800000011921","","","stimuli/Set_1_rs/121a.jpg","77","","","TF","n","true","n","","","","","","","","","","",""
"image-keyboard-response","164","688270","0.0-2.0-11.0-0.62","2566.699999988079","","","stimuli/Set_1_rs/008b.jpg","66","","","TL","s","true","s","","","","","","","","","","",""
"image-keyboard-response","165","692773","0.0-2.0-11.0-0.63","1359.7999999821186","","","stimuli/Set_1_rs/092b.jpg","67","","","TL","s","false","o","","","","","","","","","","",""
"image-keyboard-response","166","697275","0.0-2.0-11.0-0.64","1081.199999988079","","","stimuli/Set_1_rs/192a.jpg","67","","","TR","o","true","o","","","","","","","","","","",""
"image-keyboard-response","167","701778","0.0-2.0-11.0-0.65","1138.5","","","stimuli/Set_1_rs/147a.jpg","67","","","TR","o","true","o","","","","","","","","","","",""
"image-keyboard-response","168","706280","0.0-2.0-11.0-0.66","1387.7999999821186","","","stimuli/Set_1_rs/032a.jpg","77","","","TF","n","true","n","","","","","","","","","","",""
"image-keyboard-response","169","710784","0.0-2.0-11.0-0.67","1909.2999999821186","","","stimuli/Set_1_rs/128b.jpg","77","","","TL","s","false","n","","","","","","","","","","",""
"image-keyboard-response","170","715286","0.0-2.0-11.0-0.68","1998.199999988079","","","stimuli/Set_1_rs/186a.jpg","66","","","TF","n","false","s","","","","","","","","","","",""
"image-keyboard-response","171","719789","0.0-2.0-11.0-0.69","871.4000000059605","","","stimuli/Set_1_rs/109a.jpg","67","","","TR","o","true","o","","","","","","","","","","",""
"image-keyboard-response","172","724292","0.0-2.0-11.0-0.70","1616.5999999940395","","","stimuli/Set_1_rs/160a.jpg","77","","","TF","n","true","n","","","","","","","","","","",""
"image-keyboard-response","173","728795","0.0-2.0-11.0-0.71","1065.5999999940395","","","stimuli/Set_1_rs/086a.jpg","67","","","TR","o","true","o","","","","","","","","","","",""
"image-keyboard-response","174","733298","0.0-2.0-11.0-0.72","2962.4000000059605","","","stimuli/Set_1_rs/023b.jpg","77","","","TL","s","false","n","","","","","","","","","","",""
"image-keyboard-response","175","737801","0.0-2.0-11.0-0.73","1403.6000000238419","","","stimuli/Set_1_rs/114b.jpg","67","","","TL","s","false","o","","","","","","","","","","",""
"image-keyboard-response","176","742304","0.0-2.0-11.0-0.74","1844.2000000178814","","","stimuli/Set_1_rs/033b.jpg","77","","","TL","s","false","n","","","","","","","","","","",""
"image-keyboard-response","177","746807","0.0-2.0-11.0-0.75","1133.6000000238419","","","stimuli/Set_1_rs/010a.jpg","67","","","TR","o","true","o","","","","","","","","","","",""
"image-keyboard-response","178","751310","0.0-2.0-11.0-0.76","1622.4000000059605","","","stimuli/Set_1_rs/150a.jpg","67","","","TR","o","true","o","","","","","","","","","","",""
"image-keyboard-response","179","755813","0.0-2.0-11.0-0.77","1231.4000000059605","","","stimuli/Set_1_rs/038a.jpg","67","","","TR","o","true","o","","","","","","","","","","",""
"image-keyboard-response","180","760316","0.0-2.0-11.0-0.78","1337","","","stimuli/Set_1_rs/022b.jpg","67","","","TL","s","false","o","","","","","","","","","","",""
"image-keyboard-response","181","764818","0.0-2.0-11.0-0.79","1394","","","stimuli/Set_1_rs/018a.jpg","77","","","TF","n","true","n","","","","","","","","","","",""
"image-keyboard-response","182","769322","0.0-2.0-11.0-0.80","1051.0999999940395","","","stimuli/Set_1_rs/081a.jpg","77","","","TF","n","true","n","","","","","","","","","","",""
"image-keyboard-response","183","773825","0.0-2.0-11.0-0.81","1412","","","stimuli/Set_1_rs/107a.jpg","67","","","TR","o","true","o","","","","","","","","","","",""
"image-keyboard-response","184","778327","0.0-2.0-11.0-0.82","925","","","stimuli/Set_1_rs/101b.jpg","67","","","TL","s","false","o","","","","","","","","","","",""
"image-keyboard-response","185","782830","0.0-2.0-11.0-0.83","1238.0999999940395","","","stimuli/Set_1_rs/178b.jpg","67","","","TL","s","false","o","","","","","","","","","","",""
"image-keyboard-response","186","787333","0.0-2.0-11.0-0.84","2783.300000011921","","","stimuli/Set_1_rs/103b.jpg","66","","","TL","s","true","s","","","","","","","","","","",""
"image-keyboard-response","187","791835","0.0-2.0-11.0-0.85","1064.5","","","stimuli/Set_1_rs/116b.jpg","67","","","TL","s","false","o","","","","","","","","","","",""
"image-keyboard-response","188","796339","0.0-2.0-11.0-0.86","1889.9000000059605","","","stimuli/Set_1_rs/122a.jpg","66","","","TF","n","false","s","","","","","","","","","","",""
"image-keyboard-response","189","800841","0.0-2.0-11.0-0.87","1514.7000000178814","","","stimuli/Set_1_rs/044a.jpg","67","","","TR","o","true","o","","","","","","","","","","",""
"image-keyboard-response","190","805344","0.0-2.0-11.0-0.88","2627.899999976158","","","stimuli/Set_1_rs/049a.jpg","77","","","TR","o","false","n","","","","","","","","","","",""
"image-keyboard-response","191","809847","0.0-2.0-11.0-0.89","2253","","","stimuli/Set_1_rs/118a.jpg","67","","","TR","o","true","o","","","","","","","","","","",""
"image-keyboard-response","192","814351","0.0-2.0-11.0-0.90","1350","","","stimuli/Set_1_rs/040a.jpg","67","","","TR","o","true","o","","","","","","","","","","",""
"image-keyboard-response","193","818853","0.0-2.0-11.0-0.91","1055","","","stimuli/Set_1_rs/011b.jpg","67","","","TL","s","false","o","","","","","","","","","","",""
"image-keyboard-response","194","823356","0.0-2.0-11.0-0.92","1416","","","stimuli/Set_1_rs/087a.jpg","77","","","TF","n","true","n","","","","","","","","","","",""
"image-keyboard-response","195","827859","0.0-2.0-11.0-0.93","1249.4000000059605","","","stimuli/Set_1_rs/063a.jpg","67","","","TR","o","true","o","","","","","","","","","","",""
"image-keyboard-response","196","832362","0.0-2.0-11.0-0.94","1802.5","","","stimuli/Set_1_rs/098b.jpg","66","","","TL","s","true","s","","","","","","","","","","",""
"image-keyboard-response","197","836865","0.0-2.0-11.0-0.95","1699.4000000059605","","","stimuli/Set_1_rs/058a.jpg","67","","","TR","o","true","o","","","","","","","","","","",""
"html-keyboard-response","198","852496","0.0-3.0","15628.799999982119","","","<p>Vége a feladatnak. Köszönjük a részvételt!</p>","32","","","","","","","28","3","3","17","7","9","1","6","27","0.7941176470588235","0.035650623885918"
