"trial_type","trial_index","time_elapsed","internal_node_id","rt","responses","success","stimulus","key_press","cond","enc_response","condition","correct_response","correct","rec_response","targ_old","targ_sim","targ_new","lure_old","lure_sim","lure_new","foil_old","foil_sim","foil_new","recognition_ratio","ldi"
"pavlovia","0","6","0.0-0.0","","","","","","","","","","","","","","","","","","","","","",""
"survey-multi-choice","1","9762","0.0-1.0","9754","{""Q0"":""Igen"",""Q1"":""Igen""}","","","","","","","","","","","","","","","","","","","",""
"survey-text","2","15679","0.0-2.0-0.0","5914.5999999940395","{""Q0"":""483574""}","","","","","","","","","","","","","","","","","","","",""
"fullscreen","3","17826","0.0-2.0-1.0","","","true","","","","","","","","","","","","","","","","","","",""
"html-keyboard-response","4","27309","0.0-2.0-2.0","9482.59999999404","","","<p>Üdvözöljük! Ez a feladat két részből áll, és összesen 10-15 percet vesz igénybe.</p>","13","","","","","","","","","","","","","","","","",""
"html-keyboard-response","5","88604","0.0-2.0-3.0-0.0","61294.30000001192","","","<p>Az első részben tárgyakat lát majd a képernyőn, egymás után fognak megjelenni.<br>Az Ön feladata eldönteni, hogy a tárgyak <i>beltéri vagy kültéri</i> tárgyak-e.</p>						   <p>Amennyiben a tárgyat általában beltéren látja, nyomja le a <b>C</b> billentyűt. Amennyiben a tárgyat általában kültéren látja, nyomja le az <b>M</b> billentyűt.</p>						   <p>Ebben a feladatban nincsen mindig egyértelműen jó megoldás. Válaszoljon legjobb tudása szerint. A válaszadásra 2 másodperce lesz.","32","","","","","","","","","","","","","","","","",""
"html-keyboard-response","6","90607","0.0-2.0-3.0-1.0","null","","","<p>Kezdődik a gyakorlás...</p>","null","","","","","","","","","","","","","","","","",""
"image-keyboard-response","7","92610","0.0-2.0-4.0-0.0","null","","","stimuli/Set_2_rs/165b.jpg","null","-","null","","","","","","","","","","","","","","",""
"html-keyboard-response","8","101836","0.0-2.0-4.0-1.0","8723.700000017881","","","<p>Az Ön válasza:</p><p>Nem adott választ.</p>","32","","","","","","","","","","","","","","","","",""
"image-keyboard-response","9","103839","0.0-2.0-4.0-0.1","1661","","","stimuli/Set_2_rs/034a.jpg","67","-","indoor","","","","","","","","","","","","","","",""
"html-keyboard-response","10","106700","0.0-2.0-4.0-1.1","2359","","","<p>Az Ön válasza:</p><p>Beltéri.</p>","32","","","","","","","","","","","","","","","","",""
"image-keyboard-response","11","108702","0.0-2.0-4.0-0.2","1294.199999988079","","","stimuli/Set_2_rs/049a.jpg","77","SL","outdoor","","","","","","","","","","","","","","",""
"html-keyboard-response","12","109675","0.0-2.0-4.0-1.2","471.09999999403954","","","<p>Az Ön válasza:</p><p>Kültéri.</p>","32","","","","","","","","","","","","","","","","",""
"image-keyboard-response","13","111677","0.0-2.0-4.0-0.3","1134.699999988079","","","stimuli/Set_2_rs/028a.jpg","67","SR","indoor","","","","","","","","","","","","","","",""
"html-keyboard-response","14","113084","0.0-2.0-4.0-1.3","903.8999999761581","","","<p>Az Ön válasza:</p><p>Beltéri.</p>","32","","","","","","","","","","","","","","","","",""
"image-keyboard-response","15","115086","0.0-2.0-4.0-0.4","1294.199999988079","","","stimuli/Set_2_rs/135a.jpg","67","SL","indoor","","","","","","","","","","","","","","",""
"html-keyboard-response","16","117275","0.0-2.0-4.0-1.4","1688.5999999940395","","","<p>Az Ön válasza:</p><p>Beltéri.</p>","32","","","","","","","","","","","","","","","","",""
"image-keyboard-response","17","119277","0.0-2.0-4.0-0.5","null","","","stimuli/Set_2_rs/137a.jpg","null","SR","null","","","","","","","","","","","","","","",""
"html-keyboard-response","18","122347","0.0-2.0-4.0-1.5","2568.5","","","<p>Az Ön válasza:</p><p>Nem adott választ.</p>","32","","","","","","","","","","","","","","","","",""
"html-keyboard-response","19","126860","0.0-2.0-5.0-0.0","4511.299999982119","","","<p>Ez volt a gyakorlás. A feladat következik. A feladat alatt már nem kap visszajelzést.</p>","32","","","","","","","","","","","","","","","","",""
"html-keyboard-response","20","128861","0.0-2.0-5.0-1.0","null","","","<p>Kezdődik a feladat...</p>","null","","","","","","","","","","","","","","","","",""
"image-keyboard-response","21","131364","0.0-2.0-6.0-0.0","1196.5","","","stimuli/Set_1_rs/157a.jpg","77","","outdoor","SR","","","","","","","","","","","","","",""
"image-keyboard-response","22","133866","0.0-2.0-6.0-0.1","1174.1000000238419","","","stimuli/Set_1_rs/009a.jpg","67","","indoor","SR","","","","","","","","","","","","","",""
"image-keyboard-response","23","136367","0.0-2.0-6.0-0.2","1616.300000011921","","","stimuli/Set_1_rs/059a.jpg","67","","indoor","SL","","","","","","","","","","","","","",""
"image-keyboard-response","24","138869","0.0-2.0-6.0-0.3","1258.7000000178814","","","stimuli/Set_1_rs/024a.jpg","67","","indoor","SR","","","","","","","","","","","","","",""
"image-keyboard-response","25","141371","0.0-2.0-6.0-0.4","1043.9000000059605","","","stimuli/Set_1_rs/101a.jpg","67","","indoor","SL","","","","","","","","","","","","","",""
"image-keyboard-response","26","143874","0.0-2.0-6.0-0.5","1086.300000011921","","","stimuli/Set_1_rs/137a.jpg","77","","outdoor","SR","","","","","","","","","","","","","",""
"image-keyboard-response","27","146375","0.0-2.0-6.0-0.6","1432.2999999821186","","","stimuli/Set_1_rs/011a.jpg","77","","outdoor","SL","","","","","","","","","","","","","",""
"image-keyboard-response","28","148877","0.0-2.0-6.0-0.7","1218.2999999821186","","","stimuli/Set_1_rs/128a.jpg","67","","indoor","SL","","","","","","","","","","","","","",""
"image-keyboard-response","29","151380","0.0-2.0-6.0-0.8","1100.300000011921","","","stimuli/Set_1_rs/083a.jpg","67","","indoor","SL","","","","","","","","","","","","","",""
"image-keyboard-response","30","153882","0.0-2.0-6.0-0.9","2022.5999999940395","","","stimuli/Set_1_rs/136a.jpg","67","","indoor","SR","","","","","","","","","","","","","",""
"image-keyboard-response","31","156384","0.0-2.0-6.0-0.10","1008.4000000059605","","","stimuli/Set_1_rs/103a.jpg","67","","indoor","SL","","","","","","","","","","","","","",""
"image-keyboard-response","32","158887","0.0-2.0-6.0-0.11","874.4000000059605","","","stimuli/Set_1_rs/086a.jpg","67","","indoor","SR","","","","","","","","","","","","","",""
"image-keyboard-response","33","161389","0.0-2.0-6.0-0.12","1426.5999999940395","","","stimuli/Set_1_rs/099a.jpg","77","","outdoor","SL","","","","","","","","","","","","","",""
"image-keyboard-response","34","163891","0.0-2.0-6.0-0.13","1148.9000000059605","","","stimuli/Set_1_rs/178a.jpg","67","","indoor","SL","","","","","","","","","","","","","",""
"image-keyboard-response","35","166393","0.0-2.0-6.0-0.14","1350.9000000059605","","","stimuli/Set_1_rs/134a.jpg","67","","indoor","SL","","","","","","","","","","","","","",""
"image-keyboard-response","36","168895","0.0-2.0-6.0-0.15","688.9000000059605","","","stimuli/Set_1_rs/156a.jpg","67","","indoor","SL","","","","","","","","","","","","","",""
"image-keyboard-response","37","171397","0.0-2.0-6.0-0.16","762.8000000119209","","","stimuli/Set_1_rs/054a.jpg","77","","outdoor","SR","","","","","","","","","","","","","",""
"image-keyboard-response","38","173900","0.0-2.0-6.0-0.17","1556.699999988079","","","stimuli/Set_1_rs/092a.jpg","67","","indoor","SL","","","","","","","","","","","","","",""
"image-keyboard-response","39","176401","0.0-2.0-6.0-0.18","1534.4000000059605","","","stimuli/Set_1_rs/031a.jpg","77","","outdoor","SL","","","","","","","","","","","","","",""
"image-keyboard-response","40","178903","0.0-2.0-6.0-0.19","1064.800000011921","","","stimuli/Set_1_rs/013a.jpg","67","","indoor","SL","","","","","","","","","","","","","",""
"image-keyboard-response","41","181406","0.0-2.0-6.0-0.20","1122","","","stimuli/Set_1_rs/075a.jpg","67","","indoor","SL","","","","","","","","","","","","","",""
"image-keyboard-response","42","183908","0.0-2.0-6.0-0.21","1708.4000000059605","","","stimuli/Set_1_rs/150a.jpg","67","","indoor","SR","","","","","","","","","","","","","",""
"image-keyboard-response","43","186410","0.0-2.0-6.0-0.22","854.1999999880791","","","stimuli/Set_1_rs/094a.jpg","67","","indoor","SL","","","","","","","","","","","","","",""
"image-keyboard-response","44","188911","0.0-2.0-6.0-0.23","912","","","stimuli/Set_1_rs/090a.jpg","77","","outdoor","SL","","","","","","","","","","","","","",""
"image-keyboard-response","45","191414","0.0-2.0-6.0-0.24","1225.699999988079","","","stimuli/Set_1_rs/192a.jpg","67","","indoor","SR","","","","","","","","","","","","","",""
"image-keyboard-response","46","193915","0.0-2.0-6.0-0.25","803.8999999761581","","","stimuli/Set_1_rs/116a.jpg","67","","indoor","SL","","","","","","","","","","","","","",""
"image-keyboard-response","47","196417","0.0-2.0-6.0-0.26","974.1999999880791","","","stimuli/Set_1_rs/044a.jpg","67","","indoor","SR","","","","","","","","","","","","","",""
"image-keyboard-response","48","198919","0.0-2.0-6.0-0.27","1368.699999988079","","","stimuli/Set_1_rs/114a.jpg","67","","indoor","SL","","","","","","","","","","","","","",""
"image-keyboard-response","49","201421","0.0-2.0-6.0-0.28","1186.2999999821186","","","stimuli/Set_1_rs/112a.jpg","67","","indoor","SR","","","","","","","","","","","","","",""
"image-keyboard-response","50","203922","0.0-2.0-6.0-0.29","796.9000000059605","","","stimuli/Set_1_rs/052a.jpg","67","","indoor","SL","","","","","","","","","","","","","",""
"image-keyboard-response","51","206424","0.0-2.0-6.0-0.30","919.2999999821186","","","stimuli/Set_1_rs/058a.jpg","67","","indoor","SR","","","","","","","","","","","","","",""
"image-keyboard-response","52","208925","0.0-2.0-6.0-0.31","1266","","","stimuli/Set_1_rs/023a.jpg","77","","outdoor","SL","","","","","","","","","","","","","",""
"image-keyboard-response","53","211428","0.0-2.0-6.0-0.32","1515.4000000059605","","","stimuli/Set_1_rs/030a.jpg","77","","outdoor","SR","","","","","","","","","","","","","",""
"image-keyboard-response","54","213930","0.0-2.0-6.0-0.33","1429.699999988079","","","stimuli/Set_1_rs/091a.jpg","77","","outdoor","SR","","","","","","","","","","","","","",""
"image-keyboard-response","55","216432","0.0-2.0-6.0-0.34","1487.0999999940395","","","stimuli/Set_1_rs/147a.jpg","67","","indoor","SR","","","","","","","","","","","","","",""
"image-keyboard-response","56","218934","0.0-2.0-6.0-0.35","1129.800000011921","","","stimuli/Set_1_rs/063a.jpg","67","","indoor","SR","","","","","","","","","","","","","",""
"image-keyboard-response","57","221438","0.0-2.0-6.0-0.36","1058.5999999940395","","","stimuli/Set_1_rs/040a.jpg","77","","outdoor","SR","","","","","","","","","","","","","",""
"image-keyboard-response","58","223939","0.0-2.0-6.0-0.37","1083.300000011921","","","stimuli/Set_1_rs/038a.jpg","67","","indoor","SR","","","","","","","","","","","","","",""
"image-keyboard-response","59","226441","0.0-2.0-6.0-0.38","1558","","","stimuli/Set_1_rs/100a.jpg","67","","indoor","SL","","","","","","","","","","","","","",""
"image-keyboard-response","60","228942","0.0-2.0-6.0-0.39","1024.300000011921","","","stimuli/Set_1_rs/109a.jpg","67","","indoor","SR","","","","","","","","","","","","","",""
"image-keyboard-response","61","231445","0.0-2.0-6.0-0.40","986.3000000119209","","","stimuli/Set_1_rs/191a.jpg","67","","indoor","SR","","","","","","","","","","","","","",""
"image-keyboard-response","62","233948","0.0-2.0-6.0-0.41","1236.0999999940395","","","stimuli/Set_1_rs/061a.jpg","77","","outdoor","SL","","","","","","","","","","","","","",""
"image-keyboard-response","63","236450","0.0-2.0-6.0-0.42","1325.2999999821186","","","stimuli/Set_1_rs/162a.jpg","67","","indoor","SR","","","","","","","","","","","","","",""
"image-keyboard-response","64","238951","0.0-2.0-6.0-0.43","1207.2999999821186","","","stimuli/Set_1_rs/046a.jpg","77","","outdoor","SR","","","","","","","","","","","","","",""
"image-keyboard-response","65","241454","0.0-2.0-6.0-0.44","881","","","stimuli/Set_1_rs/155a.jpg","77","","outdoor","SL","","","","","","","","","","","","","",""
"image-keyboard-response","66","243956","0.0-2.0-6.0-0.45","955.1000000238419","","","stimuli/Set_1_rs/010a.jpg","67","","indoor","SR","","","","","","","","","","","","","",""
"image-keyboard-response","67","246457","0.0-2.0-6.0-0.46","1333.199999988079","","","stimuli/Set_1_rs/142a.jpg","77","","outdoor","SR","","","","","","","","","","","","","",""
"image-keyboard-response","68","248959","0.0-2.0-6.0-0.47","1151.699999988079","","","stimuli/Set_1_rs/045a.jpg","67","","indoor","SL","","","","","","","","","","","","","",""
"image-keyboard-response","69","251462","0.0-2.0-6.0-0.48","1257.5","","","stimuli/Set_1_rs/070a.jpg","77","","outdoor","SR","","","","","","","","","","","","","",""
"image-keyboard-response","70","253964","0.0-2.0-6.0-0.49","1187.2999999821186","","","stimuli/Set_1_rs/022a.jpg","67","","indoor","SL","","","","","","","","","","","","","",""
"image-keyboard-response","71","256466","0.0-2.0-6.0-0.50","1277","","","stimuli/Set_1_rs/021a.jpg","67","","indoor","SR","","","","","","","","","","","","","",""
"image-keyboard-response","72","258968","0.0-2.0-6.0-0.51","1414.800000011921","","","stimuli/Set_1_rs/098a.jpg","67","","indoor","SL","","","","","","","","","","","","","",""
"image-keyboard-response","73","261470","0.0-2.0-6.0-0.52","720.5","","","stimuli/Set_1_rs/008a.jpg","67","","indoor","SL","","","","","","","","","","","","","",""
"image-keyboard-response","74","263972","0.0-2.0-6.0-0.53","1098.7000000178814","","","stimuli/Set_1_rs/012a.jpg","67","","indoor","SL","","","","","","","","","","","","","",""
"image-keyboard-response","75","266475","0.0-2.0-6.0-0.54","868.4000000059605","","","stimuli/Set_1_rs/153a.jpg","67","","indoor","SR","","","","","","","","","","","","","",""
"image-keyboard-response","76","268976","0.0-2.0-6.0-0.55","1038.2000000178814","","","stimuli/Set_1_rs/068a.jpg","77","","outdoor","SL","","","","","","","","","","","","","",""
"image-keyboard-response","77","271479","0.0-2.0-6.0-0.56","1096","","","stimuli/Set_1_rs/140a.jpg","67","","indoor","SL","","","","","","","","","","","","","",""
"image-keyboard-response","78","273981","0.0-2.0-6.0-0.57","1186.0999999940395","","","stimuli/Set_1_rs/029a.jpg","67","","indoor","SR","","","","","","","","","","","","","",""
"image-keyboard-response","79","276484","0.0-2.0-6.0-0.58","1131.3999999761581","","","stimuli/Set_1_rs/049a.jpg","77","","outdoor","SR","","","","","","","","","","","","","",""
"image-keyboard-response","80","278986","0.0-2.0-6.0-0.59","773","","","stimuli/Set_1_rs/180a.jpg","67","","indoor","SR","","","","","","","","","","","","","",""
"image-keyboard-response","81","281488","0.0-2.0-6.0-0.60","1022.0999999940395","","","stimuli/Set_1_rs/033a.jpg","67","","indoor","SL","","","","","","","","","","","","","",""
"image-keyboard-response","82","283990","0.0-2.0-6.0-0.61","1512.800000011921","","","stimuli/Set_1_rs/119a.jpg","67","","indoor","SL","","","","","","","","","","","","","",""
"image-keyboard-response","83","286492","0.0-2.0-6.0-0.62","1042.9000000059605","","","stimuli/Set_1_rs/118a.jpg","67","","indoor","SR","","","","","","","","","","","","","",""
"image-keyboard-response","84","288994","0.0-2.0-6.0-0.63","1036.4000000059605","","","stimuli/Set_1_rs/107a.jpg","77","","outdoor","SR","","","","","","","","","","","","","",""
"html-keyboard-response","85","291690","0.0-2.0-7.0","2694.5999999940395","","","<p>Vége a feladat első részének. Tartson egy pár perces szünetet.</p>","32","","","","","","","","","","","","","","","","",""
"html-keyboard-response","86","329162","0.0-2.0-8.0-0.0","37471.09999999404","","","<p>A következőkben ismét tárgyak jelennek majd meg a képernyőn, egymás után.<br>Az Ön feladata eldönteni, látta-e már ezeket a tárgyakat a vizsgálat első felében.</p>		        			<p>Amennyiben pontosan ugyanezt a tárgyat látta (a tárgy <i>régi</i>), nyomja le a <b>C</b> billentyűt.</p>		        			<p>Amennyiben hasonló tárgyat látott (a tárgy <i>hasonló</i>), nyomja le a <b>B</b> billentyűt.</p>		        			<p>Amennyiben nem látta ezt a tárgyat az első részben (a tárgy <i>új</i>), nyomja le az <b>M</b> billentyűt.</p>","32","","","","","","","","","","","","","","","","",""
"html-keyboard-response","87","331164","0.0-2.0-8.0-1.0","null","","","<p>Kezdődik a gyakorlás...</p>","null","","","","","","","","","","","","","","","","",""
"image-keyboard-response","88","335166","0.0-2.0-9.0-0.0","1611.3999999761581","","","stimuli/Set_2_rs/049b.jpg","67","","","TL","l","false","o","","","","","","","","","","",""
"html-keyboard-response","89","341145","0.0-2.0-9.0-1.0","5976.899999976158","","","<p>A helyes válasz: Hasonló.</p><p>Az Ön válasza: Régi.</p>","32","","","","","","","","","","","","","","","","",""
"image-keyboard-response","90","345148","0.0-2.0-9.0-0.1","2477.7000000178814","","","stimuli/Set_2_rs/018b.jpg","77","","","TF","n","true","n","","","","","","","","","","",""
"html-keyboard-response","91","347097","0.0-2.0-9.0-1.1","1947.5999999940395","","","<p>A helyes válasz: Új.</p><p>Az Ön válasza: Új.</p>","32","","","","","","","","","","","","","","","","",""
"image-keyboard-response","92","351100","0.0-2.0-9.0-0.2","2477.9000000059605","","","stimuli/Set_2_rs/028a.jpg","67","","","TR","o","true","o","","","","","","","","","","",""
"html-keyboard-response","93","355081","0.0-2.0-9.0-1.2","3979.5","","","<p>A helyes válasz: Régi.</p><p>Az Ön válasza: Régi.</p>","32","","","","","","","","","","","","","","","","",""
"image-keyboard-response","94","359084","0.0-2.0-9.0-0.3","1853.7000000178814","","","stimuli/Set_2_rs/137a.jpg","67","","","TR","o","true","o","","","","","","","","","","",""
"html-keyboard-response","95","364793","0.0-2.0-9.0-1.3","5707.5","","","<p>A helyes válasz: Régi.</p><p>Az Ön válasza: Régi.</p>","32","","","","","","","","","","","","","","","","",""
"image-keyboard-response","96","368796","0.0-2.0-9.0-0.4","1214","","","stimuli/Set_2_rs/135b.jpg","67","","","TL","l","false","o","","","","","","","","","","",""
"html-keyboard-response","97","376985","0.0-2.0-9.0-1.4","8187.5","","","<p>A helyes válasz: Hasonló.</p><p>Az Ön válasza: Régi.</p>","32","","","","","","","","","","","","","","","","",""
"image-keyboard-response","98","380988","0.0-2.0-9.0-0.5","1741.7999999821186","","","stimuli/Set_2_rs/019a.jpg","77","","","TF","n","true","n","","","","","","","","","","",""
"html-keyboard-response","99","383112","0.0-2.0-9.0-1.5","2123.5","","","<p>A helyes válasz: Új.</p><p>Az Ön válasza: Új.</p>","32","","","","","","","","","","","","","","","","",""
"html-keyboard-response","100","426569","0.0-2.0-10.0-0.0","43455.29999998212","","","<p>Ez volt a gyakorlás. A feladat következik. A feladat alatt már nem kap visszajelzést.</p>","32","","","","","","","","","","","","","","","","",""
"html-keyboard-response","101","428570","0.0-2.0-10.0-1.0","null","","","<p>Kezdődik a feladat...</p>","null","","","","","","","","","","","","","","","","",""
"image-keyboard-response","102","433073","0.0-2.0-11.0-0.0","1963.5","","","stimuli/Set_1_rs/181a.jpg","77","","","TF","n","true","n","","","","","","","","","","",""
"image-keyboard-response","103","437576","0.0-2.0-11.0-0.1","1780.5","","","stimuli/Set_1_rs/152a.jpg","77","","","TF","n","true","n","","","","","","","","","","",""
"image-keyboard-response","104","442079","0.0-2.0-11.0-0.2","1341.300000011921","","","stimuli/Set_1_rs/090b.jpg","67","","","TL","s","false","o","","","","","","","","","","",""
"image-keyboard-response","105","446581","0.0-2.0-11.0-0.3","1526.4000000059605","","","stimuli/Set_1_rs/126a.jpg","77","","","TF","n","true","n","","","","","","","","","","",""
"image-keyboard-response","106","451085","0.0-2.0-11.0-0.4","1135.7000000178814","","","stimuli/Set_1_rs/068b.jpg","66","","","TL","s","true","s","","","","","","","","","","",""
"image-keyboard-response","107","455587","0.0-2.0-11.0-0.5","1480.5","","","stimuli/Set_1_rs/054a.jpg","67","","","TR","o","true","o","","","","","","","","","","",""
"image-keyboard-response","108","460090","0.0-2.0-11.0-0.6","961.6999999880791","","","stimuli/Set_1_rs/162a.jpg","67","","","TR","o","true","o","","","","","","","","","","",""
"image-keyboard-response","109","464593","0.0-2.0-11.0-0.7","1066.5999999940395","","","stimuli/Set_1_rs/019a.jpg","77","","","TF","n","true","n","","","","","","","","","","",""
"image-keyboard-response","110","469097","0.0-2.0-11.0-0.8","1412","","","stimuli/Set_1_rs/119b.jpg","67","","","TL","s","false","o","","","","","","","","","","",""
"image-keyboard-response","111","473600","0.0-2.0-11.0-0.9","844.4000000059605","","","stimuli/Set_1_rs/052b.jpg","67","","","TL","s","false","o","","","","","","","","","","",""
"image-keyboard-response","112","478103","0.0-2.0-11.0-0.10","1333.300000011921","","","stimuli/Set_1_rs/135a.jpg","77","","","TF","n","true","n","","","","","","","","","","",""
"image-keyboard-response","113","482606","0.0-2.0-11.0-0.11","958.4000000059605","","","stimuli/Set_1_rs/004a.jpg","77","","","TF","n","true","n","","","","","","","","","","",""
"image-keyboard-response","114","487109","0.0-2.0-11.0-0.12","1142.7000000178814","","","stimuli/Set_1_rs/072a.jpg","77","","","TF","n","true","n","","","","","","","","","","",""
"image-keyboard-response","115","491612","0.0-2.0-11.0-0.13","1136.300000011921","","","stimuli/Set_1_rs/028a.jpg","77","","","TF","n","true","n","","","","","","","","","","",""
"image-keyboard-response","116","496116","0.0-2.0-11.0-0.14","1337.2000000178814","","","stimuli/Set_1_rs/091a.jpg","67","","","TR","o","true","o","","","","","","","","","","",""
"image-keyboard-response","117","500619","0.0-2.0-11.0-0.15","897.1999999880791","","","stimuli/Set_1_rs/108a.jpg","77","","","TF","n","true","n","","","","","","","","","","",""
"image-keyboard-response","118","505122","0.0-2.0-11.0-0.16","1033.7000000178814","","","stimuli/Set_1_rs/146a.jpg","77","","","TF","n","true","n","","","","","","","","","","",""
"image-keyboard-response","119","509625","0.0-2.0-11.0-0.17","2642.7000000178814","","","stimuli/Set_1_rs/013b.jpg","66","","","TL","s","true","s","","","","","","","","","","",""
"image-keyboard-response","120","514128","0.0-2.0-11.0-0.18","1532","","","stimuli/Set_1_rs/141a.jpg","77","","","TF","n","true","n","","","","","","","","","","",""
"image-keyboard-response","121","518632","0.0-2.0-11.0-0.19","1076.5999999940395","","","stimuli/Set_1_rs/156b.jpg","67","","","TL","s","false","o","","","","","","","","","","",""
"image-keyboard-response","122","523135","0.0-2.0-11.0-0.20","1325.2999999821186","","","stimuli/Set_1_rs/024a.jpg","67","","","TR","o","true","o","","","","","","","","","","",""
"image-keyboard-response","123","527639","0.0-2.0-11.0-0.21","1205.5999999940395","","","stimuli/Set_1_rs/046a.jpg","67","","","TR","o","true","o","","","","","","","","","","",""
"image-keyboard-response","124","532142","0.0-2.0-11.0-0.22","909.8000000119209","","","stimuli/Set_1_rs/100b.jpg","67","","","TL","s","false","o","","","","","","","","","","",""
"image-keyboard-response","125","536645","0.0-2.0-11.0-0.23","1206.9000000059605","","","stimuli/Set_1_rs/080a.jpg","77","","","TF","n","true","n","","","","","","","","","","",""
"image-keyboard-response","126","541148","0.0-2.0-11.0-0.24","944","","","stimuli/Set_1_rs/094b.jpg","67","","","TL","s","false","o","","","","","","","","","","",""
"image-keyboard-response","127","545651","0.0-2.0-11.0-0.25","1353.1000000238419","","","stimuli/Set_1_rs/190a.jpg","77","","","TF","n","true","n","","","","","","","","","","",""
"image-keyboard-response","128","550153","0.0-2.0-11.0-0.26","1217.800000011921","","","stimuli/Set_1_rs/137a.jpg","67","","","TR","o","true","o","","","","","","","","","","",""
"image-keyboard-response","129","554657","0.0-2.0-11.0-0.27","747","","","stimuli/Set_1_rs/180a.jpg","67","","","TR","o","true","o","","","","","","","","","","",""
"image-keyboard-response","130","559159","0.0-2.0-11.0-0.28","1011.5999999940395","","","stimuli/Set_1_rs/134b.jpg","67","","","TL","s","false","o","","","","","","","","","","",""
"image-keyboard-response","131","563662","0.0-2.0-11.0-0.29","1725.5","","","stimuli/Set_1_rs/088a.jpg","77","","","TF","n","true","n","","","","","","","","","","",""
"image-keyboard-response","132","568166","0.0-2.0-11.0-0.30","933.9000000059605","","","stimuli/Set_1_rs/165a.jpg","77","","","TF","n","true","n","","","","","","","","","","",""
"image-keyboard-response","133","572671","0.0-2.0-11.0-0.31","1772.699999988079","","","stimuli/Set_1_rs/075b.jpg","77","","","TL","s","false","n","","","","","","","","","","",""
"image-keyboard-response","134","577173","0.0-2.0-11.0-0.32","1157.5999999940395","","","stimuli/Set_1_rs/191a.jpg","67","","","TR","o","true","o","","","","","","","","","","",""
"image-keyboard-response","135","581677","0.0-2.0-11.0-0.33","1294.7000000178814","","","stimuli/Set_1_rs/112a.jpg","67","","","TR","o","true","o","","","","","","","","","","",""
"image-keyboard-response","136","586179","0.0-2.0-11.0-0.34","1191.4000000059605","","","stimuli/Set_1_rs/171a.jpg","77","","","TF","n","true","n","","","","","","","","","","",""
"image-keyboard-response","137","590682","0.0-2.0-11.0-0.35","848.8000000119209","","","stimuli/Set_1_rs/021a.jpg","67","","","TR","o","true","o","","","","","","","","","","",""
"image-keyboard-response","138","595186","0.0-2.0-11.0-0.36","1034.1000000238419","","","stimuli/Set_1_rs/157a.jpg","67","","","TR","o","true","o","","","","","","","","","","",""
"image-keyboard-response","139","599688","0.0-2.0-11.0-0.37","1058.0999999940395","","","stimuli/Set_1_rs/059b.jpg","67","","","TL","s","false","o","","","","","","","","","","",""
"image-keyboard-response","140","604191","0.0-2.0-11.0-0.38","1611.5999999940395","","","stimuli/Set_1_rs/153a.jpg","67","","","TR","o","true","o","","","","","","","","","","",""
"image-keyboard-response","141","608694","0.0-2.0-11.0-0.39","1812.5999999940395","","","stimuli/Set_1_rs/002a.jpg","77","","","TF","n","true","n","","","","","","","","","","",""
"image-keyboard-response","142","613197","0.0-2.0-11.0-0.40","1405.699999988079","","","stimuli/Set_1_rs/041a.jpg","77","","","TF","n","true","n","","","","","","","","","","",""
"image-keyboard-response","143","617700","0.0-2.0-11.0-0.41","1350.800000011921","","","stimuli/Set_1_rs/012b.jpg","67","","","TL","s","false","o","","","","","","","","","","",""
"image-keyboard-response","144","622203","0.0-2.0-11.0-0.42","928.0999999940395","","","stimuli/Set_1_rs/083b.jpg","67","","","TL","s","false","o","","","","","","","","","","",""
"image-keyboard-response","145","626706","0.0-2.0-11.0-0.43","1304.6000000238419","","","stimuli/Set_1_rs/051a.jpg","77","","","TF","n","true","n","","","","","","","","","","",""
"image-keyboard-response","146","631209","0.0-2.0-11.0-0.44","1234","","","stimuli/Set_1_rs/168a.jpg","77","","","TF","n","true","n","","","","","","","","","","",""
"image-keyboard-response","147","635712","0.0-2.0-11.0-0.45","1947","","","stimuli/Set_1_rs/155b.jpg","66","","","TL","s","true","s","","","","","","","","","","",""
"image-keyboard-response","148","640215","0.0-2.0-11.0-0.46","1315.699999988079","","","stimuli/Set_1_rs/045b.jpg","67","","","TL","s","false","o","","","","","","","","","","",""
"image-keyboard-response","149","644719","0.0-2.0-11.0-0.47","2524.399999976158","","","stimuli/Set_1_rs/031b.jpg","77","","","TL","s","false","n","","","","","","","","","","",""
"image-keyboard-response","150","649221","0.0-2.0-11.0-0.48","1573.2999999821186","","","stimuli/Set_1_rs/136a.jpg","67","","","TR","o","true","o","","","","","","","","","","",""
"image-keyboard-response","151","653724","0.0-2.0-11.0-0.49","1214.4000000059605","","","stimuli/Set_1_rs/053a.jpg","77","","","TF","n","true","n","","","","","","","","","","",""
"image-keyboard-response","152","658226","0.0-2.0-11.0-0.50","2872","","","stimuli/Set_1_rs/061b.jpg","66","","","TL","s","true","s","","","","","","","","","","",""
"image-keyboard-response","153","662729","0.0-2.0-11.0-0.51","1569.5","","","stimuli/Set_1_rs/062a.jpg","77","","","TF","n","true","n","","","","","","","","","","",""
"image-keyboard-response","154","667232","0.0-2.0-11.0-0.52","2202.100000023842","","","stimuli/Set_1_rs/009a.jpg","66","","","TR","o","false","s","","","","","","","","","","",""
"image-keyboard-response","155","671735","0.0-2.0-11.0-0.53","1299.800000011921","","","stimuli/Set_1_rs/099b.jpg","67","","","TL","s","false","o","","","","","","","","","","",""
"image-keyboard-response","156","676238","0.0-2.0-11.0-0.54","1388.0999999940395","","","stimuli/Set_1_rs/030a.jpg","67","","","TR","o","true","o","","","","","","","","","","",""
"image-keyboard-response","157","680741","0.0-2.0-11.0-0.55","2149.7000000178814","","","stimuli/Set_1_rs/029a.jpg","67","","","TR","o","true","o","","","","","","","","","","",""
"image-keyboard-response","158","685243","0.0-2.0-11.0-0.56","878.6000000238419","","","stimuli/Set_1_rs/140b.jpg","67","","","TL","s","false","o","","","","","","","","","","",""
"image-keyboard-response","159","689745","0.0-2.0-11.0-0.57","1352.2999999821186","","","stimuli/Set_1_rs/182a.jpg","77","","","TF","n","true","n","","","","","","","","","","",""
"image-keyboard-response","160","694248","0.0-2.0-11.0-0.58","2162","","","stimuli/Set_1_rs/151a.jpg","77","","","TF","n","true","n","","","","","","","","","","",""
"image-keyboard-response","161","698751","0.0-2.0-11.0-0.59","1355.0999999940395","","","stimuli/Set_1_rs/142a.jpg","67","","","TR","o","true","o","","","","","","","","","","",""
"image-keyboard-response","162","703254","0.0-2.0-11.0-0.60","995.6999999880791","","","stimuli/Set_1_rs/070a.jpg","67","","","TR","o","true","o","","","","","","","","","","",""
"image-keyboard-response","163","707757","0.0-2.0-11.0-0.61","1004.9000000059605","","","stimuli/Set_1_rs/121a.jpg","77","","","TF","n","true","n","","","","","","","","","","",""
"image-keyboard-response","164","712259","0.0-2.0-11.0-0.62","2230.4000000059605","","","stimuli/Set_1_rs/008b.jpg","67","","","TL","s","false","o","","","","","","","","","","",""
"image-keyboard-response","165","716762","0.0-2.0-11.0-0.63","1135.300000011921","","","stimuli/Set_1_rs/092b.jpg","67","","","TL","s","false","o","","","","","","","","","","",""
"image-keyboard-response","166","721266","0.0-2.0-11.0-0.64","776.7000000178814","","","stimuli/Set_1_rs/192a.jpg","67","","","TR","o","true","o","","","","","","","","","","",""
"image-keyboard-response","167","725769","0.0-2.0-11.0-0.65","912.7999999821186","","","stimuli/Set_1_rs/147a.jpg","67","","","TR","o","true","o","","","","","","","","","","",""
"image-keyboard-response","168","730272","0.0-2.0-11.0-0.66","1129.699999988079","","","stimuli/Set_1_rs/032a.jpg","77","","","TF","n","true","n","","","","","","","","","","",""
"image-keyboard-response","169","734776","0.0-2.0-11.0-0.67","1394.800000011921","","","stimuli/Set_1_rs/128b.jpg","67","","","TL","s","false","o","","","","","","","","","","",""
"image-keyboard-response","170","739278","0.0-2.0-11.0-0.68","1035","","","stimuli/Set_1_rs/186a.jpg","77","","","TF","n","true","n","","","","","","","","","","",""
"image-keyboard-response","171","743781","0.0-2.0-11.0-0.69","932.3000000119209","","","stimuli/Set_1_rs/109a.jpg","67","","","TR","o","true","o","","","","","","","","","","",""
"image-keyboard-response","172","748284","0.0-2.0-11.0-0.70","1165.3999999761581","","","stimuli/Set_1_rs/160a.jpg","77","","","TF","n","true","n","","","","","","","","","","",""
"image-keyboard-response","173","752787","0.0-2.0-11.0-0.71","1478.800000011921","","","stimuli/Set_1_rs/086a.jpg","67","","","TR","o","true","o","","","","","","","","","","",""
"image-keyboard-response","174","757290","0.0-2.0-11.0-0.72","1487.9000000059605","","","stimuli/Set_1_rs/023b.jpg","67","","","TL","s","false","o","","","","","","","","","","",""
"image-keyboard-response","175","761792","0.0-2.0-11.0-0.73","1528.800000011921","","","stimuli/Set_1_rs/114b.jpg","67","","","TL","s","false","o","","","","","","","","","","",""
"image-keyboard-response","176","766296","0.0-2.0-11.0-0.74","2146.2000000178814","","","stimuli/Set_1_rs/033b.jpg","66","","","TL","s","true","s","","","","","","","","","","",""
"image-keyboard-response","177","770799","0.0-2.0-11.0-0.75","1338.5","","","stimuli/Set_1_rs/010a.jpg","67","","","TR","o","true","o","","","","","","","","","","",""
"image-keyboard-response","178","775301","0.0-2.0-11.0-0.76","995.5999999940395","","","stimuli/Set_1_rs/150a.jpg","67","","","TR","o","true","o","","","","","","","","","","",""
"image-keyboard-response","179","779804","0.0-2.0-11.0-0.77","1053","","","stimuli/Set_1_rs/038a.jpg","67","","","TR","o","true","o","","","","","","","","","","",""
"image-keyboard-response","180","784307","0.0-2.0-11.0-0.78","1206.5999999940395","","","stimuli/Set_1_rs/022b.jpg","67","","","TL","s","false","o","","","","","","","","","","",""
"image-keyboard-response","181","788809","0.0-2.0-11.0-0.79","1119.5999999940395","","","stimuli/Set_1_rs/018a.jpg","77","","","TF","n","true","n","","","","","","","","","","",""
"image-keyboard-response","182","793313","0.0-2.0-11.0-0.80","1145","","","stimuli/Set_1_rs/081a.jpg","77","","","TF","n","true","n","","","","","","","","","","",""
"image-keyboard-response","183","797816","0.0-2.0-11.0-0.81","993.5","","","stimuli/Set_1_rs/107a.jpg","67","","","TR","o","true","o","","","","","","","","","","",""
"image-keyboard-response","184","802319","0.0-2.0-11.0-0.82","1226.4000000059605","","","stimuli/Set_1_rs/101b.jpg","67","","","TL","s","false","o","","","","","","","","","","",""
"image-keyboard-response","185","806822","0.0-2.0-11.0-0.83","2674.9000000059605","","","stimuli/Set_1_rs/178b.jpg","66","","","TL","s","true","s","","","","","","","","","","",""
"image-keyboard-response","186","811325","0.0-2.0-11.0-0.84","2027.800000011921","","","stimuli/Set_1_rs/103b.jpg","66","","","TL","s","true","s","","","","","","","","","","",""
"image-keyboard-response","187","815827","0.0-2.0-11.0-0.85","1093.3999999761581","","","stimuli/Set_1_rs/116b.jpg","67","","","TL","s","false","o","","","","","","","","","","",""
"image-keyboard-response","188","820330","0.0-2.0-11.0-0.86","1246.8999999761581","","","stimuli/Set_1_rs/122a.jpg","77","","","TF","n","true","n","","","","","","","","","","",""
"image-keyboard-response","189","824832","0.0-2.0-11.0-0.87","1160","","","stimuli/Set_1_rs/044a.jpg","67","","","TR","o","true","o","","","","","","","","","","",""
"image-keyboard-response","190","829336","0.0-2.0-11.0-0.88","1185.699999988079","","","stimuli/Set_1_rs/049a.jpg","67","","","TR","o","true","o","","","","","","","","","","",""
"image-keyboard-response","191","833839","0.0-2.0-11.0-0.89","937.8000000119209","","","stimuli/Set_1_rs/118a.jpg","67","","","TR","o","true","o","","","","","","","","","","",""
"image-keyboard-response","192","838342","0.0-2.0-11.0-0.90","946.4000000059605","","","stimuli/Set_1_rs/040a.jpg","67","","","TR","o","true","o","","","","","","","","","","",""
"image-keyboard-response","193","842845","0.0-2.0-11.0-0.91","748","","","stimuli/Set_1_rs/011b.jpg","67","","","TL","s","false","o","","","","","","","","","","",""
"image-keyboard-response","194","847348","0.0-2.0-11.0-0.92","1140.5","","","stimuli/Set_1_rs/087a.jpg","77","","","TF","n","true","n","","","","","","","","","","",""
"image-keyboard-response","195","851851","0.0-2.0-11.0-0.93","1790.0999999940395","","","stimuli/Set_1_rs/063a.jpg","67","","","TR","o","true","o","","","","","","","","","","",""
"image-keyboard-response","196","856353","0.0-2.0-11.0-0.94","1047","","","stimuli/Set_1_rs/098b.jpg","67","","","TL","s","false","o","","","","","","","","","","",""
"image-keyboard-response","197","860856","0.0-2.0-11.0-0.95","1328.2999999821186","","","stimuli/Set_1_rs/058a.jpg","67","","","TR","o","true","o","","","","","","","","","","",""
"html-keyboard-response","198","877651","0.0-3.0","16794","","","<p>Vége a feladatnak. Köszönjük a részvételt!</p>","32","","","","","","","33","1","0","25","7","2","0","0","34","0.9705882352941176","0.20588235294117646"
