"trial_type","trial_index","time_elapsed","internal_node_id","rt","responses","success","stimulus","key_press","cond","enc_response","condition","correct_response","correct","rec_response","targ_old","targ_sim","targ_new","lure_old","lure_sim","lure_new","foil_old","foil_sim","foil_new","recognition_ratio","ldi"
"pavlovia","0","5","0.0-0.0","","","","","","","","","","","","","","","","","","","","","",""
"survey-multi-choice","1","5508","0.0-1.0","5499.700000286102","{""Q0"":""Igen"",""Q1"":""Igen""}","","","","","","","","","","","","","","","","","","","",""
"survey-text","2","11684","0.0-2.0-0.0","6173.699999809265","{""Q0"":""971163""}","","","","","","","","","","","","","","","","","","","",""
"fullscreen","3","14228","0.0-2.0-1.0","","","true","","","","","","","","","","","","","","","","","","",""
"html-keyboard-response","4","18491","0.0-2.0-2.0","4261","","","<p>Üdvözöljük! Ez a feladat két részből áll, és összesen 10-15 percet vesz igénybe.</p>","174","","","","","","","","","","","","","","","","",""
"html-keyboard-response","5","124697","0.0-2.0-3.0-0.0","106204.89999961853","","","<p>Az első részben tárgyakat lát majd a képernyőn, egymás után fognak megjelenni.<br>Az Ön feladata eldönteni, hogy a tárgyak <i>beltéri vagy kültéri</i> tárgyak-e.</p>						   <p>Amennyiben a tárgyat általában beltéren látja, nyomja le a <b>C</b> billentyűt. Amennyiben a tárgyat általában kültéren látja, nyomja le az <b>M</b> billentyűt.</p>						   <p>Ebben a feladatban nincsen mindig egyértelműen jó megoldás. Válaszoljon legjobb tudása szerint. A válaszadásra 2 másodperce lesz.","32","","","","","","","","","","","","","","","","",""
"html-keyboard-response","6","126700","0.0-2.0-3.0-1.0","null","","","<p>Kezdődik a gyakorlás...</p>","null","","","","","","","","","","","","","","","","",""
"image-keyboard-response","7","128704","0.0-2.0-4.0-0.0","1577.1999998092651","","","stimuli/Set_2_rs/165b.jpg","77","-","outdoor","","","","","","","","","","","","","","",""
"html-keyboard-response","8","132216","0.0-2.0-4.0-1.0","3010.699999809265","","","<p>Az Ön válasza:</p><p>Kültéri.</p>","32","","","","","","","","","","","","","","","","",""
"image-keyboard-response","9","134219","0.0-2.0-4.0-0.1","null","","","stimuli/Set_2_rs/034a.jpg","null","-","null","","","","","","","","","","","","","","",""
"html-keyboard-response","10","136376","0.0-2.0-4.0-1.1","1655.1000003814697","","","<p>Az Ön válasza:</p><p>Nem adott választ.</p>","32","","","","","","","","","","","","","","","","",""
"image-keyboard-response","11","138379","0.0-2.0-4.0-0.2","1518.0999999046326","","","stimuli/Set_2_rs/049a.jpg","77","SL","outdoor","","","","","","","","","","","","","","",""
"html-keyboard-response","12","139384","0.0-2.0-4.0-1.2","503.09999990463257","","","<p>Az Ön válasza:</p><p>Kültéri.</p>","32","","","","","","","","","","","","","","","","",""
"image-keyboard-response","13","141387","0.0-2.0-4.0-0.3","1278.3000001907349","","","stimuli/Set_2_rs/028a.jpg","67","SR","indoor","","","","","","","","","","","","","","",""
"html-keyboard-response","14","142296","0.0-2.0-4.0-1.3","407.40000009536743","","","<p>Az Ön válasza:</p><p>Beltéri.</p>","32","","","","","","","","","","","","","","","","",""
"image-keyboard-response","15","144298","0.0-2.0-4.0-0.4","1087.4000000953674","","","stimuli/Set_2_rs/135a.jpg","67","SL","indoor","","","","","","","","","","","","","","",""
"html-keyboard-response","16","145304","0.0-2.0-4.0-1.4","503","","","<p>Az Ön válasza:</p><p>Beltéri.</p>","32","","","","","","","","","","","","","","","","",""
"image-keyboard-response","17","147306","0.0-2.0-4.0-0.5","1790.0999999046326","","","stimuli/Set_2_rs/137a.jpg","67","SR","indoor","","","","","","","","","","","","","","",""
"html-keyboard-response","18","148072","0.0-2.0-4.0-1.5","263.2000002861023","","","<p>Az Ön válasza:</p><p>Beltéri.</p>","32","","","","","","","","","","","","","","","","",""
"html-keyboard-response","19","158296","0.0-2.0-5.0-0.0","10223.300000190735","","","<p>Ez volt a gyakorlás. A feladat következik. A feladat alatt már nem kap visszajelzést.</p>","32","","","","","","","","","","","","","","","","",""
"html-keyboard-response","20","160297","0.0-2.0-5.0-1.0","null","","","<p>Kezdődik a feladat...</p>","null","","","","","","","","","","","","","","","","",""
"image-keyboard-response","21","162800","0.0-2.0-6.0-0.0","1196.2000002861023","","","stimuli/Set_1_rs/157a.jpg","67","","indoor","SR","","","","","","","","","","","","","",""
"image-keyboard-response","22","165302","0.0-2.0-6.0-0.1","1606","","","stimuli/Set_1_rs/009a.jpg","67","","indoor","SR","","","","","","","","","","","","","",""
"image-keyboard-response","23","167804","0.0-2.0-6.0-0.2","1760.5","","","stimuli/Set_1_rs/059a.jpg","67","","indoor","SL","","","","","","","","","","","","","",""
"image-keyboard-response","24","170305","0.0-2.0-6.0-0.3","1626.2999997138977","","","stimuli/Set_1_rs/024a.jpg","77","","outdoor","SR","","","","","","","","","","","","","",""
"image-keyboard-response","25","172808","0.0-2.0-6.0-0.4","2036","","","stimuli/Set_1_rs/101a.jpg","67","","indoor","SL","","","","","","","","","","","","","",""
"image-keyboard-response","26","175310","0.0-2.0-6.0-0.5","null","","","stimuli/Set_1_rs/137a.jpg","null","","null","SR","","","","","","","","","","","","","",""
"image-keyboard-response","27","177812","0.0-2.0-6.0-0.6","24.40000009536743","","","stimuli/Set_1_rs/011a.jpg","77","","outdoor","SL","","","","","","","","","","","","","",""
"image-keyboard-response","28","180313","0.0-2.0-6.0-0.7","1746.3999996185303","","","stimuli/Set_1_rs/128a.jpg","77","","outdoor","SL","","","","","","","","","","","","","",""
"image-keyboard-response","29","182815","0.0-2.0-6.0-0.8","1228.3000001907349","","","stimuli/Set_1_rs/083a.jpg","67","","indoor","SL","","","","","","","","","","","","","",""
"image-keyboard-response","30","185317","0.0-2.0-6.0-0.9","1287","","","stimuli/Set_1_rs/136a.jpg","67","","indoor","SR","","","","","","","","","","","","","",""
"image-keyboard-response","31","187818","0.0-2.0-6.0-0.10","1009","","","stimuli/Set_1_rs/103a.jpg","67","","indoor","SL","","","","","","","","","","","","","",""
"image-keyboard-response","32","190320","0.0-2.0-6.0-0.11","1771.4000000953674","","","stimuli/Set_1_rs/086a.jpg","67","","indoor","SR","","","","","","","","","","","","","",""
"image-keyboard-response","33","192822","0.0-2.0-6.0-0.12","1669","","","stimuli/Set_1_rs/099a.jpg","67","","indoor","SL","","","","","","","","","","","","","",""
"image-keyboard-response","34","195324","0.0-2.0-6.0-0.13","1647.3000001907349","","","stimuli/Set_1_rs/178a.jpg","67","","indoor","SL","","","","","","","","","","","","","",""
"image-keyboard-response","35","197826","0.0-2.0-6.0-0.14","1673.4000000953674","","","stimuli/Set_1_rs/134a.jpg","67","","indoor","SL","","","","","","","","","","","","","",""
"image-keyboard-response","36","200327","0.0-2.0-6.0-0.15","915.9000000953674","","","stimuli/Set_1_rs/156a.jpg","67","","indoor","SL","","","","","","","","","","","","","",""
"image-keyboard-response","37","202829","0.0-2.0-6.0-0.16","893.5","","","stimuli/Set_1_rs/054a.jpg","67","","indoor","SR","","","","","","","","","","","","","",""
"image-keyboard-response","38","205332","0.0-2.0-6.0-0.17","968.0999999046326","","","stimuli/Set_1_rs/092a.jpg","77","","outdoor","SL","","","","","","","","","","","","","",""
"image-keyboard-response","39","207833","0.0-2.0-6.0-0.18","1633.7999997138977","","","stimuli/Set_1_rs/031a.jpg","67","","indoor","SL","","","","","","","","","","","","","",""
"image-keyboard-response","40","210335","0.0-2.0-6.0-0.19","1420.3999996185303","","","stimuli/Set_1_rs/013a.jpg","67","","indoor","SL","","","","","","","","","","","","","",""
"image-keyboard-response","41","212838","0.0-2.0-6.0-0.20","965.5","","","stimuli/Set_1_rs/075a.jpg","67","","indoor","SL","","","","","","","","","","","","","",""
"image-keyboard-response","42","215340","0.0-2.0-6.0-0.21","2255.5","","","stimuli/Set_1_rs/150a.jpg","67","","indoor","SR","","","","","","","","","","","","","",""
"image-keyboard-response","43","217841","0.0-2.0-6.0-0.22","825.5999999046326","","","stimuli/Set_1_rs/094a.jpg","67","","indoor","SL","","","","","","","","","","","","","",""
"image-keyboard-response","44","220343","0.0-2.0-6.0-0.23","899.9000000953674","","","stimuli/Set_1_rs/090a.jpg","77","","outdoor","SL","","","","","","","","","","","","","",""
"image-keyboard-response","45","222845","0.0-2.0-6.0-0.24","1469.9000000953674","","","stimuli/Set_1_rs/192a.jpg","67","","indoor","SR","","","","","","","","","","","","","",""
"image-keyboard-response","46","225347","0.0-2.0-6.0-0.25","1128.5999999046326","","","stimuli/Set_1_rs/116a.jpg","67","","indoor","SL","","","","","","","","","","","","","",""
"image-keyboard-response","47","227848","0.0-2.0-6.0-0.26","1154.0999999046326","","","stimuli/Set_1_rs/044a.jpg","67","","indoor","SR","","","","","","","","","","","","","",""
"image-keyboard-response","48","230350","0.0-2.0-6.0-0.27","908.9000000953674","","","stimuli/Set_1_rs/114a.jpg","67","","indoor","SL","","","","","","","","","","","","","",""
"image-keyboard-response","49","232854","0.0-2.0-6.0-0.28","1270.3000001907349","","","stimuli/Set_1_rs/112a.jpg","67","","indoor","SR","","","","","","","","","","","","","",""
"image-keyboard-response","50","235357","0.0-2.0-6.0-0.29","735.0999999046326","","","stimuli/Set_1_rs/052a.jpg","67","","indoor","SL","","","","","","","","","","","","","",""
"image-keyboard-response","51","237859","0.0-2.0-6.0-0.30","1992.5","","","stimuli/Set_1_rs/058a.jpg","77","","outdoor","SR","","","","","","","","","","","","","",""
"image-keyboard-response","52","240361","0.0-2.0-6.0-0.31","1842.2000002861023","","","stimuli/Set_1_rs/023a.jpg","77","","outdoor","SL","","","","","","","","","","","","","",""
"image-keyboard-response","53","242863","0.0-2.0-6.0-0.32","1339.7000002861023","","","stimuli/Set_1_rs/030a.jpg","67","","indoor","SR","","","","","","","","","","","","","",""
"image-keyboard-response","54","245366","0.0-2.0-6.0-0.33","1893.9000000953674","","","stimuli/Set_1_rs/091a.jpg","67","","indoor","SR","","","","","","","","","","","","","",""
"image-keyboard-response","55","247868","0.0-2.0-6.0-0.34","1360","","","stimuli/Set_1_rs/147a.jpg","67","","indoor","SR","","","","","","","","","","","","","",""
"image-keyboard-response","56","250370","0.0-2.0-6.0-0.35","1769.8999996185303","","","stimuli/Set_1_rs/063a.jpg","77","","outdoor","SR","","","","","","","","","","","","","",""
"image-keyboard-response","57","252873","0.0-2.0-6.0-0.36","947.5","","","stimuli/Set_1_rs/040a.jpg","77","","outdoor","SR","","","","","","","","","","","","","",""
"image-keyboard-response","58","255374","0.0-2.0-6.0-0.37","924.7000002861023","","","stimuli/Set_1_rs/038a.jpg","67","","indoor","SR","","","","","","","","","","","","","",""
"image-keyboard-response","59","257876","0.0-2.0-6.0-0.38","2119.2999997138977","","","stimuli/Set_1_rs/100a.jpg","77","","outdoor","SL","","","","","","","","","","","","","",""
"image-keyboard-response","60","260379","0.0-2.0-6.0-0.39","1345.4000000953674","","","stimuli/Set_1_rs/109a.jpg","67","","indoor","SR","","","","","","","","","","","","","",""
"image-keyboard-response","61","262883","0.0-2.0-6.0-0.40","1081.7999997138977","","","stimuli/Set_1_rs/191a.jpg","67","","indoor","SR","","","","","","","","","","","","","",""
"image-keyboard-response","62","265385","0.0-2.0-6.0-0.41","850.5999999046326","","","stimuli/Set_1_rs/061a.jpg","67","","indoor","SL","","","","","","","","","","","","","",""
"image-keyboard-response","63","267888","0.0-2.0-6.0-0.42","1324.4000000953674","","","stimuli/Set_1_rs/162a.jpg","67","","indoor","SR","","","","","","","","","","","","","",""
"image-keyboard-response","64","270390","0.0-2.0-6.0-0.43","965.3000001907349","","","stimuli/Set_1_rs/046a.jpg","67","","indoor","SR","","","","","","","","","","","","","",""
"image-keyboard-response","65","272893","0.0-2.0-6.0-0.44","1007.0999999046326","","","stimuli/Set_1_rs/155a.jpg","77","","outdoor","SL","","","","","","","","","","","","","",""
"image-keyboard-response","66","275394","0.0-2.0-6.0-0.45","1081","","","stimuli/Set_1_rs/010a.jpg","67","","indoor","SR","","","","","","","","","","","","","",""
"image-keyboard-response","67","277896","0.0-2.0-6.0-0.46","547.4000000953674","","","stimuli/Set_1_rs/142a.jpg","67","","indoor","SR","","","","","","","","","","","","","",""
"image-keyboard-response","68","280397","0.0-2.0-6.0-0.47","1245.7000002861023","","","stimuli/Set_1_rs/045a.jpg","67","","indoor","SL","","","","","","","","","","","","","",""
"image-keyboard-response","69","282900","0.0-2.0-6.0-0.48","631.4000000953674","","","stimuli/Set_1_rs/070a.jpg","67","","indoor","SR","","","","","","","","","","","","","",""
"image-keyboard-response","70","285403","0.0-2.0-6.0-0.49","1137.6999998092651","","","stimuli/Set_1_rs/022a.jpg","67","","indoor","SL","","","","","","","","","","","","","",""
"image-keyboard-response","71","287905","0.0-2.0-6.0-0.50","1546.4000000953674","","","stimuli/Set_1_rs/021a.jpg","67","","indoor","SR","","","","","","","","","","","","","",""
"image-keyboard-response","72","290407","0.0-2.0-6.0-0.51","1204.5","","","stimuli/Set_1_rs/098a.jpg","67","","indoor","SL","","","","","","","","","","","","","",""
"image-keyboard-response","73","292910","0.0-2.0-6.0-0.52","1405.5","","","stimuli/Set_1_rs/008a.jpg","67","","indoor","SL","","","","","","","","","","","","","",""
"image-keyboard-response","74","295412","0.0-2.0-6.0-0.53","1415.5","","","stimuli/Set_1_rs/012a.jpg","67","","indoor","SL","","","","","","","","","","","","","",""
"image-keyboard-response","75","297914","0.0-2.0-6.0-0.54","1265.3999996185303","","","stimuli/Set_1_rs/153a.jpg","67","","indoor","SR","","","","","","","","","","","","","",""
"image-keyboard-response","76","300416","0.0-2.0-6.0-0.55","2235.5","","","stimuli/Set_1_rs/068a.jpg","67","","indoor","SL","","","","","","","","","","","","","",""
"image-keyboard-response","77","302919","0.0-2.0-6.0-0.56","788.5999999046326","","","stimuli/Set_1_rs/140a.jpg","67","","indoor","SL","","","","","","","","","","","","","",""
"image-keyboard-response","78","305421","0.0-2.0-6.0-0.57","1358.5","","","stimuli/Set_1_rs/029a.jpg","67","","indoor","SR","","","","","","","","","","","","","",""
"image-keyboard-response","79","307923","0.0-2.0-6.0-0.58","1272.4000000953674","","","stimuli/Set_1_rs/049a.jpg","77","","outdoor","SR","","","","","","","","","","","","","",""
"image-keyboard-response","80","310426","0.0-2.0-6.0-0.59","706.4000000953674","","","stimuli/Set_1_rs/180a.jpg","67","","indoor","SR","","","","","","","","","","","","","",""
"image-keyboard-response","81","312929","0.0-2.0-6.0-0.60","1386.6999998092651","","","stimuli/Set_1_rs/033a.jpg","67","","indoor","SL","","","","","","","","","","","","","",""
"image-keyboard-response","82","315431","0.0-2.0-6.0-0.61","2051.9000000953674","","","stimuli/Set_1_rs/119a.jpg","67","","indoor","SL","","","","","","","","","","","","","",""
"image-keyboard-response","83","317933","0.0-2.0-6.0-0.62","1821.9000000953674","","","stimuli/Set_1_rs/118a.jpg","77","","outdoor","SR","","","","","","","","","","","","","",""
"image-keyboard-response","84","320435","0.0-2.0-6.0-0.63","1975.9000000953674","","","stimuli/Set_1_rs/107a.jpg","67","","indoor","SR","","","","","","","","","","","","","",""
"html-keyboard-response","85","325638","0.0-2.0-7.0","5202.900000095367","","","<p>Vége a feladat első részének. Tartson egy pár perces szünetet.</p>","32","","","","","","","","","","","","","","","","",""
"html-keyboard-response","86","361911","0.0-2.0-8.0-0.0","36271.199999809265","","","<p>A következőkben ismét tárgyak jelennek majd meg a képernyőn, egymás után.<br>Az Ön feladata eldönteni, látta-e már ezeket a tárgyakat a vizsgálat első felében.</p>		        			<p>Amennyiben pontosan ugyanezt a tárgyat látta (a tárgy <i>régi</i>), nyomja le a <b>C</b> billentyűt.</p>		        			<p>Amennyiben hasonló tárgyat látott (a tárgy <i>hasonló</i>), nyomja le a <b>B</b> billentyűt.</p>		        			<p>Amennyiben nem látta ezt a tárgyat az első részben (a tárgy <i>új</i>), nyomja le az <b>M</b> billentyűt.</p>","32","","","","","","","","","","","","","","","","",""
"html-keyboard-response","87","363912","0.0-2.0-8.0-1.0","null","","","<p>Kezdődik a gyakorlás...</p>","null","","","","","","","","","","","","","","","","",""
"image-keyboard-response","88","367915","0.0-2.0-9.0-0.0","2107.2000002861023","","","stimuli/Set_2_rs/049b.jpg","67","","","TL","l","false","o","","","","","","","","","","",""
"html-keyboard-response","89","370646","0.0-2.0-9.0-1.0","2728.5","","","<p>A helyes válasz: Hasonló.</p><p>Az Ön válasza: Régi.</p>","32","","","","","","","","","","","","","","","","",""
"image-keyboard-response","90","374648","0.0-2.0-9.0-0.1","null","","","stimuli/Set_2_rs/018b.jpg","null","","","TF","n","false","null","","","","","","","","","","",""
"html-keyboard-response","91","380485","0.0-2.0-9.0-1.1","5836.200000286102","","","<p>A helyes válasz: Új.</p><p>Nem adott választ.</p>","32","","","","","","","","","","","","","","","","",""
"image-keyboard-response","92","384489","0.0-2.0-9.0-0.2","1853.7999997138977","","","stimuli/Set_2_rs/028a.jpg","67","","","TR","o","true","o","","","","","","","","","","",""
"html-keyboard-response","93","386741","0.0-2.0-9.0-1.2","2251.7000002861023","","","<p>A helyes válasz: Régi.</p><p>Az Ön válasza: Régi.</p>","32","","","","","","","","","","","","","","","","",""
"image-keyboard-response","94","390744","0.0-2.0-9.0-0.3","1293.7999997138977","","","stimuli/Set_2_rs/137a.jpg","67","","","TR","o","true","o","","","","","","","","","","",""
"html-keyboard-response","95","391541","0.0-2.0-9.0-1.3","796.1999998092651","","","<p>A helyes válasz: Régi.</p><p>Az Ön válasza: Régi.</p>","32","","","","","","","","","","","","","","","","",""
"image-keyboard-response","96","395544","0.0-2.0-9.0-0.4","1086.1999998092651","","","stimuli/Set_2_rs/135b.jpg","67","","","TL","l","false","o","","","","","","","","","","",""
"html-keyboard-response","97","396293","0.0-2.0-9.0-1.4","748.1999998092651","","","<p>A helyes válasz: Hasonló.</p><p>Az Ön válasza: Régi.</p>","32","","","","","","","","","","","","","","","","",""
"image-keyboard-response","98","400296","0.0-2.0-9.0-0.5","2862.3999996185303","","","stimuli/Set_2_rs/019a.jpg","66","","","TF","n","false","s","","","","","","","","","","",""
"html-keyboard-response","99","404261","0.0-2.0-9.0-1.5","3964.199999809265","","","<p>A helyes válasz: Új.</p><p>Az Ön válasza: Hasonló.</p>","32","","","","","","","","","","","","","","","","",""
"html-keyboard-response","100","408805","0.0-2.0-10.0-0.0","4543.299999713898","","","<p>Ez volt a gyakorlás. A feladat következik. A feladat alatt már nem kap visszajelzést.</p>","32","","","","","","","","","","","","","","","","",""
"html-keyboard-response","101","410807","0.0-2.0-10.0-1.0","null","","","<p>Kezdődik a feladat...</p>","null","","","","","","","","","","","","","","","","",""
"image-keyboard-response","102","415310","0.0-2.0-11.0-0.0","4315.700000286102","","","stimuli/Set_1_rs/181a.jpg","77","","","TF","n","true","n","","","","","","","","","","",""
"image-keyboard-response","103","419813","0.0-2.0-11.0-0.1","1492.4000000953674","","","stimuli/Set_1_rs/152a.jpg","77","","","TF","n","true","n","","","","","","","","","","",""
"image-keyboard-response","104","424316","0.0-2.0-11.0-0.2","3053.2000002861023","","","stimuli/Set_1_rs/090b.jpg","66","","","TL","s","true","s","","","","","","","","","","",""
"image-keyboard-response","105","428819","0.0-2.0-11.0-0.3","1510.4000000953674","","","stimuli/Set_1_rs/126a.jpg","77","","","TF","n","true","n","","","","","","","","","","",""
"image-keyboard-response","106","433322","0.0-2.0-11.0-0.4","1647.3000001907349","","","stimuli/Set_1_rs/068b.jpg","77","","","TL","s","false","n","","","","","","","","","","",""
"image-keyboard-response","107","437826","0.0-2.0-11.0-0.5","1480.4000000953674","","","stimuli/Set_1_rs/054a.jpg","67","","","TR","o","true","o","","","","","","","","","","",""
"image-keyboard-response","108","442329","0.0-2.0-11.0-0.6","1969","","","stimuli/Set_1_rs/162a.jpg","66","","","TR","o","false","s","","","","","","","","","","",""
"image-keyboard-response","109","446831","0.0-2.0-11.0-0.7","2234.5","","","stimuli/Set_1_rs/019a.jpg","66","","","TF","n","false","s","","","","","","","","","","",""
"image-keyboard-response","110","451334","0.0-2.0-11.0-0.8","1635.5","","","stimuli/Set_1_rs/119b.jpg","67","","","TL","s","false","o","","","","","","","","","","",""
"image-keyboard-response","111","455837","0.0-2.0-11.0-0.9","1788.6999998092651","","","stimuli/Set_1_rs/052b.jpg","67","","","TL","s","false","o","","","","","","","","","","",""
"image-keyboard-response","112","460339","0.0-2.0-11.0-0.10","2069.300000190735","","","stimuli/Set_1_rs/135a.jpg","77","","","TF","n","true","n","","","","","","","","","","",""
"image-keyboard-response","113","464843","0.0-2.0-11.0-0.11","1326.8000001907349","","","stimuli/Set_1_rs/004a.jpg","77","","","TF","n","true","n","","","","","","","","","","",""
"image-keyboard-response","114","469346","0.0-2.0-11.0-0.12","1063.8000001907349","","","stimuli/Set_1_rs/072a.jpg","77","","","TF","n","true","n","","","","","","","","","","",""
"image-keyboard-response","115","473849","0.0-2.0-11.0-0.13","2096.7000002861023","","","stimuli/Set_1_rs/028a.jpg","77","","","TF","n","true","n","","","","","","","","","","",""
"image-keyboard-response","116","478352","0.0-2.0-11.0-0.14","1753.3999996185303","","","stimuli/Set_1_rs/091a.jpg","67","","","TR","o","true","o","","","","","","","","","","",""
"image-keyboard-response","117","482855","0.0-2.0-11.0-0.15","2738.5","","","stimuli/Set_1_rs/108a.jpg","77","","","TF","n","true","n","","","","","","","","","","",""
"image-keyboard-response","118","487357","0.0-2.0-11.0-0.16","2251.199999809265","","","stimuli/Set_1_rs/146a.jpg","66","","","TF","n","false","s","","","","","","","","","","",""
"image-keyboard-response","119","491860","0.0-2.0-11.0-0.17","1652.5","","","stimuli/Set_1_rs/013b.jpg","67","","","TL","s","false","o","","","","","","","","","","",""
"image-keyboard-response","120","496363","0.0-2.0-11.0-0.18","2126.0999999046326","","","stimuli/Set_1_rs/141a.jpg","66","","","TF","n","false","s","","","","","","","","","","",""
"image-keyboard-response","121","500867","0.0-2.0-11.0-0.19","1590.5999999046326","","","stimuli/Set_1_rs/156b.jpg","66","","","TL","s","true","s","","","","","","","","","","",""
"image-keyboard-response","122","505370","0.0-2.0-11.0-0.20","1454.9000000953674","","","stimuli/Set_1_rs/024a.jpg","67","","","TR","o","true","o","","","","","","","","","","",""
"image-keyboard-response","123","509873","0.0-2.0-11.0-0.21","1224.0999999046326","","","stimuli/Set_1_rs/046a.jpg","67","","","TR","o","true","o","","","","","","","","","","",""
"image-keyboard-response","124","514376","0.0-2.0-11.0-0.22","1473.1000003814697","","","stimuli/Set_1_rs/100b.jpg","67","","","TL","s","false","o","","","","","","","","","","",""
"image-keyboard-response","125","518879","0.0-2.0-11.0-0.23","1449.6000003814697","","","stimuli/Set_1_rs/080a.jpg","66","","","TF","n","false","s","","","","","","","","","","",""
"image-keyboard-response","126","523382","0.0-2.0-11.0-0.24","994.5999999046326","","","stimuli/Set_1_rs/094b.jpg","67","","","TL","s","false","o","","","","","","","","","","",""
"image-keyboard-response","127","527884","0.0-2.0-11.0-0.25","2652.0999999046326","","","stimuli/Set_1_rs/190a.jpg","77","","","TF","n","true","n","","","","","","","","","","",""
"image-keyboard-response","128","532387","0.0-2.0-11.0-0.26","1349.6999998092651","","","stimuli/Set_1_rs/137a.jpg","77","","","TR","o","false","n","","","","","","","","","","",""
"image-keyboard-response","129","536893","0.0-2.0-11.0-0.27","1099.9000000953674","","","stimuli/Set_1_rs/180a.jpg","67","","","TR","o","true","o","","","","","","","","","","",""
"image-keyboard-response","130","541396","0.0-2.0-11.0-0.28","2341.0999999046326","","","stimuli/Set_1_rs/134b.jpg","66","","","TL","s","true","s","","","","","","","","","","",""
"image-keyboard-response","131","545898","0.0-2.0-11.0-0.29","2733.9000000953674","","","stimuli/Set_1_rs/088a.jpg","77","","","TF","n","true","n","","","","","","","","","","",""
"image-keyboard-response","132","550402","0.0-2.0-11.0-0.30","1111.3000001907349","","","stimuli/Set_1_rs/165a.jpg","77","","","TF","n","true","n","","","","","","","","","","",""
"image-keyboard-response","133","554904","0.0-2.0-11.0-0.31","1967.8000001907349","","","stimuli/Set_1_rs/075b.jpg","77","","","TL","s","false","n","","","","","","","","","","",""
"image-keyboard-response","134","559407","0.0-2.0-11.0-0.32","1289.1000003814697","","","stimuli/Set_1_rs/191a.jpg","67","","","TR","o","true","o","","","","","","","","","","",""
"image-keyboard-response","135","563910","0.0-2.0-11.0-0.33","1233.8000001907349","","","stimuli/Set_1_rs/112a.jpg","67","","","TR","o","true","o","","","","","","","","","","",""
"image-keyboard-response","136","568413","0.0-2.0-11.0-0.34","2539.1000003814697","","","stimuli/Set_1_rs/171a.jpg","77","","","TF","n","true","n","","","","","","","","","","",""
"image-keyboard-response","137","572917","0.0-2.0-11.0-0.35","1123.6999998092651","","","stimuli/Set_1_rs/021a.jpg","67","","","TR","o","true","o","","","","","","","","","","",""
"image-keyboard-response","138","577419","0.0-2.0-11.0-0.36","1948.1999998092651","","","stimuli/Set_1_rs/157a.jpg","66","","","TR","o","false","s","","","","","","","","","","",""
"image-keyboard-response","139","581922","0.0-2.0-11.0-0.37","1237.4000000953674","","","stimuli/Set_1_rs/059b.jpg","67","","","TL","s","false","o","","","","","","","","","","",""
"image-keyboard-response","140","586426","0.0-2.0-11.0-0.38","2062.5","","","stimuli/Set_1_rs/153a.jpg","67","","","TR","o","true","o","","","","","","","","","","",""
"image-keyboard-response","141","590929","0.0-2.0-11.0-0.39","2599.5","","","stimuli/Set_1_rs/002a.jpg","77","","","TF","n","true","n","","","","","","","","","","",""
"image-keyboard-response","142","595432","0.0-2.0-11.0-0.40","2096.0999999046326","","","stimuli/Set_1_rs/041a.jpg","77","","","TF","n","true","n","","","","","","","","","","",""
"image-keyboard-response","143","599935","0.0-2.0-11.0-0.41","1992.8000001907349","","","stimuli/Set_1_rs/012b.jpg","77","","","TL","s","false","n","","","","","","","","","","",""
"image-keyboard-response","144","604438","0.0-2.0-11.0-0.42","1153.7000002861023","","","stimuli/Set_1_rs/083b.jpg","67","","","TL","s","false","o","","","","","","","","","","",""
"image-keyboard-response","145","608941","0.0-2.0-11.0-0.43","1978.5","","","stimuli/Set_1_rs/051a.jpg","77","","","TF","n","true","n","","","","","","","","","","",""
"image-keyboard-response","146","613444","0.0-2.0-11.0-0.44","1523.4000000953674","","","stimuli/Set_1_rs/168a.jpg","77","","","TF","n","true","n","","","","","","","","","","",""
"image-keyboard-response","147","617948","0.0-2.0-11.0-0.45","1196.6999998092651","","","stimuli/Set_1_rs/155b.jpg","67","","","TL","s","false","o","","","","","","","","","","",""
"image-keyboard-response","148","622451","0.0-2.0-11.0-0.46","1541","","","stimuli/Set_1_rs/045b.jpg","67","","","TL","s","false","o","","","","","","","","","","",""
"image-keyboard-response","149","626954","0.0-2.0-11.0-0.47","2638","","","stimuli/Set_1_rs/031b.jpg","77","","","TL","s","false","n","","","","","","","","","","",""
"image-keyboard-response","150","631456","0.0-2.0-11.0-0.48","2806.800000190735","","","stimuli/Set_1_rs/136a.jpg","66","","","TR","o","false","s","","","","","","","","","","",""
"image-keyboard-response","151","635959","0.0-2.0-11.0-0.49","2080","","","stimuli/Set_1_rs/053a.jpg","77","","","TF","n","true","n","","","","","","","","","","",""
"image-keyboard-response","152","640463","0.0-2.0-11.0-0.50","1193","","","stimuli/Set_1_rs/061b.jpg","67","","","TL","s","false","o","","","","","","","","","","",""
"image-keyboard-response","153","644965","0.0-2.0-11.0-0.51","1953.4000000953674","","","stimuli/Set_1_rs/062a.jpg","77","","","TF","n","true","n","","","","","","","","","","",""
"image-keyboard-response","154","649468","0.0-2.0-11.0-0.52","1770.8000001907349","","","stimuli/Set_1_rs/009a.jpg","77","","","TR","o","false","n","","","","","","","","","","",""
"image-keyboard-response","155","653972","0.0-2.0-11.0-0.53","1076.0999999046326","","","stimuli/Set_1_rs/099b.jpg","67","","","TL","s","false","o","","","","","","","","","","",""
"image-keyboard-response","156","658475","0.0-2.0-11.0-0.54","1324.6999998092651","","","stimuli/Set_1_rs/030a.jpg","67","","","TR","o","true","o","","","","","","","","","","",""
"image-keyboard-response","157","662978","0.0-2.0-11.0-0.55","821.1999998092651","","","stimuli/Set_1_rs/029a.jpg","67","","","TR","o","true","o","","","","","","","","","","",""
"image-keyboard-response","158","667480","0.0-2.0-11.0-0.56","750.3999996185303","","","stimuli/Set_1_rs/140b.jpg","67","","","TL","s","false","o","","","","","","","","","","",""
"image-keyboard-response","159","671983","0.0-2.0-11.0-0.57","2183.7999997138977","","","stimuli/Set_1_rs/182a.jpg","66","","","TF","n","false","s","","","","","","","","","","",""
"image-keyboard-response","160","676486","0.0-2.0-11.0-0.58","1824.9000000953674","","","stimuli/Set_1_rs/151a.jpg","67","","","TF","n","false","o","","","","","","","","","","",""
"image-keyboard-response","161","680990","0.0-2.0-11.0-0.59","1097.4000000953674","","","stimuli/Set_1_rs/142a.jpg","67","","","TR","o","true","o","","","","","","","","","","",""
"image-keyboard-response","162","685493","0.0-2.0-11.0-0.60","690.0999999046326","","","stimuli/Set_1_rs/070a.jpg","67","","","TR","o","true","o","","","","","","","","","","",""
"image-keyboard-response","163","689996","0.0-2.0-11.0-0.61","1962.8000001907349","","","stimuli/Set_1_rs/121a.jpg","77","","","TF","n","true","n","","","","","","","","","","",""
"image-keyboard-response","164","694498","0.0-2.0-11.0-0.62","2851.800000190735","","","stimuli/Set_1_rs/008b.jpg","66","","","TL","s","true","s","","","","","","","","","","",""
"image-keyboard-response","165","699002","0.0-2.0-11.0-0.63","1133.0999999046326","","","stimuli/Set_1_rs/092b.jpg","67","","","TL","s","false","o","","","","","","","","","","",""
"image-keyboard-response","166","703505","0.0-2.0-11.0-0.64","1014","","","stimuli/Set_1_rs/192a.jpg","67","","","TR","o","true","o","","","","","","","","","","",""
"image-keyboard-response","167","708009","0.0-2.0-11.0-0.65","1278.6999998092651","","","stimuli/Set_1_rs/147a.jpg","67","","","TR","o","true","o","","","","","","","","","","",""
"image-keyboard-response","168","712511","0.0-2.0-11.0-0.66","1894.5999999046326","","","stimuli/Set_1_rs/032a.jpg","77","","","TF","n","true","n","","","","","","","","","","",""
"image-keyboard-response","169","717015","0.0-2.0-11.0-0.67","1024","","","stimuli/Set_1_rs/128b.jpg","67","","","TL","s","false","o","","","","","","","","","","",""
"image-keyboard-response","170","721518","0.0-2.0-11.0-0.68","null","","","stimuli/Set_1_rs/186a.jpg","null","","","TF","n","false","null","","","","","","","","","","",""
"image-keyboard-response","171","726021","0.0-2.0-11.0-0.69","3473","","","stimuli/Set_1_rs/109a.jpg","67","","","TR","o","true","o","","","","","","","","","","",""
"image-keyboard-response","172","730524","0.0-2.0-11.0-0.70","null","","","stimuli/Set_1_rs/160a.jpg","null","","","TF","n","false","null","","","","","","","","","","",""
"image-keyboard-response","173","735028","0.0-2.0-11.0-0.71","null","","","stimuli/Set_1_rs/086a.jpg","null","","","TR","o","false","null","","","","","","","","","","",""
"image-keyboard-response","174","739531","0.0-2.0-11.0-0.72","1259.3000001907349","","","stimuli/Set_1_rs/023b.jpg","67","","","TL","s","false","o","","","","","","","","","","",""
"image-keyboard-response","175","744034","0.0-2.0-11.0-0.73","1411.7999997138977","","","stimuli/Set_1_rs/114b.jpg","67","","","TL","s","false","o","","","","","","","","","","",""
"image-keyboard-response","176","748538","0.0-2.0-11.0-0.74","1388.5999999046326","","","stimuli/Set_1_rs/033b.jpg","67","","","TL","s","false","o","","","","","","","","","","",""
"image-keyboard-response","177","753040","0.0-2.0-11.0-0.75","1045.2999997138977","","","stimuli/Set_1_rs/010a.jpg","67","","","TR","o","true","o","","","","","","","","","","",""
"image-keyboard-response","178","757544","0.0-2.0-11.0-0.76","2095.0999999046326","","","stimuli/Set_1_rs/150a.jpg","67","","","TR","o","true","o","","","","","","","","","","",""
"image-keyboard-response","179","762047","0.0-2.0-11.0-0.77","1223.0999999046326","","","stimuli/Set_1_rs/038a.jpg","67","","","TR","o","true","o","","","","","","","","","","",""
"image-keyboard-response","180","766550","0.0-2.0-11.0-0.78","2127.5999999046326","","","stimuli/Set_1_rs/022b.jpg","66","","","TL","s","true","s","","","","","","","","","","",""
"image-keyboard-response","181","771053","0.0-2.0-11.0-0.79","1928.6999998092651","","","stimuli/Set_1_rs/018a.jpg","77","","","TF","n","true","n","","","","","","","","","","",""
"image-keyboard-response","182","775555","0.0-2.0-11.0-0.80","914","","","stimuli/Set_1_rs/081a.jpg","77","","","TF","n","true","n","","","","","","","","","","",""
"image-keyboard-response","183","780058","0.0-2.0-11.0-0.81","1259.2999997138977","","","stimuli/Set_1_rs/107a.jpg","67","","","TR","o","true","o","","","","","","","","","","",""
"image-keyboard-response","184","784562","0.0-2.0-11.0-0.82","948.2000002861023","","","stimuli/Set_1_rs/101b.jpg","67","","","TL","s","false","o","","","","","","","","","","",""
"image-keyboard-response","185","789064","0.0-2.0-11.0-0.83","844.6999998092651","","","stimuli/Set_1_rs/178b.jpg","67","","","TL","s","false","o","","","","","","","","","","",""
"image-keyboard-response","186","793567","0.0-2.0-11.0-0.84","2470.2000002861023","","","stimuli/Set_1_rs/103b.jpg","66","","","TL","s","true","s","","","","","","","","","","",""
"image-keyboard-response","187","798070","0.0-2.0-11.0-0.85","2271.199999809265","","","stimuli/Set_1_rs/116b.jpg","67","","","TL","s","false","o","","","","","","","","","","",""
"image-keyboard-response","188","802572","0.0-2.0-11.0-0.86","2072.5999999046326","","","stimuli/Set_1_rs/122a.jpg","77","","","TF","n","true","n","","","","","","","","","","",""
"image-keyboard-response","189","807075","0.0-2.0-11.0-0.87","818.2999997138977","","","stimuli/Set_1_rs/044a.jpg","67","","","TR","o","true","o","","","","","","","","","","",""
"image-keyboard-response","190","811578","0.0-2.0-11.0-0.88","1690.9000000953674","","","stimuli/Set_1_rs/049a.jpg","67","","","TR","o","true","o","","","","","","","","","","",""
"image-keyboard-response","191","816081","0.0-2.0-11.0-0.89","884.3000001907349","","","stimuli/Set_1_rs/118a.jpg","67","","","TR","o","true","o","","","","","","","","","","",""
"image-keyboard-response","192","820584","0.0-2.0-11.0-0.90","1196.8000001907349","","","stimuli/Set_1_rs/040a.jpg","67","","","TR","o","true","o","","","","","","","","","","",""
"image-keyboard-response","193","825088","0.0-2.0-11.0-0.91","1173.8000001907349","","","stimuli/Set_1_rs/011b.jpg","67","","","TL","s","false","o","","","","","","","","","","",""
"image-keyboard-response","194","829591","0.0-2.0-11.0-0.92","2157.7000002861023","","","stimuli/Set_1_rs/087a.jpg","77","","","TF","n","true","n","","","","","","","","","","",""
"image-keyboard-response","195","834094","0.0-2.0-11.0-0.93","1015","","","stimuli/Set_1_rs/063a.jpg","67","","","TR","o","true","o","","","","","","","","","","",""
"image-keyboard-response","196","838597","0.0-2.0-11.0-0.94","1055.6999998092651","","","stimuli/Set_1_rs/098b.jpg","67","","","TL","s","false","o","","","","","","","","","","",""
"image-keyboard-response","197","843100","0.0-2.0-11.0-0.95","1512.8999996185303","","","stimuli/Set_1_rs/058a.jpg","67","","","TR","o","true","o","","","","","","","","","","",""
"html-keyboard-response","198","853392","0.0-3.0","10290","","","<p>Vége a feladatnak. Köszönjük a részvételt!</p>","72","","","","","","","28","3","2","24","6","4","1","6","24","0.8162267839687195","-0.01707779886148006"
