"trial_type","trial_index","time_elapsed","internal_node_id","rt","responses","success","stimulus","key_press","cond","enc_response","condition","correct_response","correct","rec_response","targ_old","targ_sim","targ_new","lure_old","lure_sim","lure_new","foil_old","foil_sim","foil_new","recognition_ratio","ldi"
"pavlovia","0","5","0.0-0.0","","","","","","","","","","","","","","","","","","","","","",""
"survey-multi-choice","1","8743","0.0-1.0","8734.900000095367","{""Q0"":""Igen"",""Q1"":""Igen""}","","","","","","","","","","","","","","","","","","","",""
"survey-text","2","26034","0.0-2.0-0.0","17288.599999904633","{""Q0"":""696365""}","","","","","","","","","","","","","","","","","","","",""
"fullscreen","3","31284","0.0-2.0-1.0","","","true","","","","","","","","","","","","","","","","","","",""
"html-keyboard-response","4","39463","0.0-2.0-2.0","8177.700000047684","","","<p>Üdvözöljük! Ez a feladat két részből áll, és összesen 10-15 percet vesz igénybe.</p>","221","","","","","","","","","","","","","","","","",""
"html-keyboard-response","5","70324","0.0-2.0-3.0-0.0","30860.900000095367","","","<p>Az első részben tárgyakat lát majd a képernyőn, egymás után fognak megjelenni.<br>Az Ön feladata eldönteni, hogy a tárgyak <i>beltéri vagy kültéri</i> tárgyak-e.</p>						   <p>Amennyiben a tárgyat általában beltéren látja, nyomja le a <b>C</b> billentyűt. Amennyiben a tárgyat általában kültéren látja, nyomja le az <b>M</b> billentyűt.</p>						   <p>Ebben a feladatban nincsen mindig egyértelműen jó megoldás. Válaszoljon legjobb tudása szerint. A válaszadásra 2 másodperce lesz.","32","","","","","","","","","","","","","","","","",""
"html-keyboard-response","6","72326","0.0-2.0-3.0-1.0","null","","","<p>Kezdődik a gyakorlás...</p>","null","","","","","","","","","","","","","","","","",""
"image-keyboard-response","7","74330","0.0-2.0-4.0-0.0","null","","","stimuli/Set_2_rs/165b.jpg","null","-","null","","","","","","","","","","","","","","",""
"html-keyboard-response","8","80292","0.0-2.0-4.0-1.0","5459.5","","","<p>Az Ön válasza:</p><p>Nem adott választ.</p>","32","","","","","","","","","","","","","","","","",""
"image-keyboard-response","9","82294","0.0-2.0-4.0-0.1","null","","","stimuli/Set_2_rs/034a.jpg","null","-","null","","","","","","","","","","","","","","",""
"html-keyboard-response","10","94804","0.0-2.0-4.0-1.1","12008.200000047684","","","<p>Az Ön válasza:</p><p>Nem adott választ.</p>","32","","","","","","","","","","","","","","","","",""
"image-keyboard-response","11","96806","0.0-2.0-4.0-0.2","1310.2999999523163","","","stimuli/Set_2_rs/049a.jpg","77","SL","outdoor","","","","","","","","","","","","","","",""
"html-keyboard-response","12","98660","0.0-2.0-4.0-1.2","1351.2000000476837","","","<p>Az Ön válasza:</p><p>Kültéri.</p>","32","","","","","","","","","","","","","","","","",""
"image-keyboard-response","13","100663","0.0-2.0-4.0-0.3","1230.5","","","stimuli/Set_2_rs/028a.jpg","67","SR","indoor","","","","","","","","","","","","","","",""
"html-keyboard-response","14","101651","0.0-2.0-4.0-1.3","486.7000000476837","","","<p>Az Ön válasza:</p><p>Beltéri.</p>","32","","","","","","","","","","","","","","","","",""
"image-keyboard-response","15","103653","0.0-2.0-4.0-0.4","942.6000000238419","","","stimuli/Set_2_rs/135a.jpg","67","SL","indoor","","","","","","","","","","","","","","",""
"html-keyboard-response","16","104739","0.0-2.0-4.0-1.4","584.3000000715256","","","<p>Az Ön válasza:</p><p>Beltéri.</p>","32","","","","","","","","","","","","","","","","",""
"image-keyboard-response","17","106741","0.0-2.0-4.0-0.5","1215","","","stimuli/Set_2_rs/137a.jpg","67","SR","indoor","","","","","","","","","","","","","","",""
"html-keyboard-response","18","108003","0.0-2.0-4.0-1.5","760.5","","","<p>Az Ön válasza:</p><p>Beltéri.</p>","32","","","","","","","","","","","","","","","","",""
"html-keyboard-response","19","127732","0.0-2.0-5.0-0.0","19727.199999928474","","","<p>Ez volt a gyakorlás. A feladat következik. A feladat alatt már nem kap visszajelzést.</p>","32","","","","","","","","","","","","","","","","",""
"html-keyboard-response","20","129733","0.0-2.0-5.0-1.0","null","","","<p>Kezdődik a feladat...</p>","null","","","","","","","","","","","","","","","","",""
"image-keyboard-response","21","132236","0.0-2.0-6.0-0.0","1004.3000000715256","","","stimuli/Set_1_rs/157a.jpg","67","","indoor","SR","","","","","","","","","","","","","",""
"image-keyboard-response","22","134738","0.0-2.0-6.0-0.1","1477.3999999761581","","","stimuli/Set_1_rs/009a.jpg","67","","indoor","SR","","","","","","","","","","","","","",""
"image-keyboard-response","23","137239","0.0-2.0-6.0-0.2","1040","","","stimuli/Set_1_rs/059a.jpg","67","","indoor","SL","","","","","","","","","","","","","",""
"image-keyboard-response","24","139741","0.0-2.0-6.0-0.3","1050.2000000476837","","","stimuli/Set_1_rs/024a.jpg","77","","outdoor","SR","","","","","","","","","","","","","",""
"image-keyboard-response","25","142244","0.0-2.0-6.0-0.4","1139.3999999761581","","","stimuli/Set_1_rs/101a.jpg","67","","indoor","SL","","","","","","","","","","","","","",""
"image-keyboard-response","26","144746","0.0-2.0-6.0-0.5","1149.1999999284744","","","stimuli/Set_1_rs/137a.jpg","77","","outdoor","SR","","","","","","","","","","","","","",""
"image-keyboard-response","27","147248","0.0-2.0-6.0-0.6","1255.8999999761581","","","stimuli/Set_1_rs/011a.jpg","67","","indoor","SL","","","","","","","","","","","","","",""
"image-keyboard-response","28","149750","0.0-2.0-6.0-0.7","1505.5999999046326","","","stimuli/Set_1_rs/128a.jpg","67","","indoor","SL","","","","","","","","","","","","","",""
"image-keyboard-response","29","152253","0.0-2.0-6.0-0.8","1066.6999999284744","","","stimuli/Set_1_rs/083a.jpg","67","","indoor","SL","","","","","","","","","","","","","",""
"image-keyboard-response","30","154754","0.0-2.0-6.0-0.9","1268.6000000238419","","","stimuli/Set_1_rs/136a.jpg","67","","indoor","SR","","","","","","","","","","","","","",""
"image-keyboard-response","31","157256","0.0-2.0-6.0-0.10","1263","","","stimuli/Set_1_rs/103a.jpg","67","","indoor","SL","","","","","","","","","","","","","",""
"image-keyboard-response","32","159759","0.0-2.0-6.0-0.11","1161.3999999761581","","","stimuli/Set_1_rs/086a.jpg","67","","indoor","SR","","","","","","","","","","","","","",""
"image-keyboard-response","33","162262","0.0-2.0-6.0-0.12","1090.1000000238419","","","stimuli/Set_1_rs/099a.jpg","77","","outdoor","SL","","","","","","","","","","","","","",""
"image-keyboard-response","34","164764","0.0-2.0-6.0-0.13","1899","","","stimuli/Set_1_rs/178a.jpg","77","","outdoor","SL","","","","","","","","","","","","","",""
"image-keyboard-response","35","167266","0.0-2.0-6.0-0.14","1172.8000000715256","","","stimuli/Set_1_rs/134a.jpg","67","","indoor","SL","","","","","","","","","","","","","",""
"image-keyboard-response","36","169769","0.0-2.0-6.0-0.15","878.7000000476837","","","stimuli/Set_1_rs/156a.jpg","67","","indoor","SL","","","","","","","","","","","","","",""
"image-keyboard-response","37","172273","0.0-2.0-6.0-0.16","1607","","","stimuli/Set_1_rs/054a.jpg","77","","outdoor","SR","","","","","","","","","","","","","",""
"image-keyboard-response","38","174776","0.0-2.0-6.0-0.17","1376.3999999761581","","","stimuli/Set_1_rs/092a.jpg","77","","outdoor","SL","","","","","","","","","","","","","",""
"image-keyboard-response","39","177277","0.0-2.0-6.0-0.18","1833.3999999761581","","","stimuli/Set_1_rs/031a.jpg","77","","outdoor","SL","","","","","","","","","","","","","",""
"image-keyboard-response","40","179779","0.0-2.0-6.0-0.19","1331.6999999284744","","","stimuli/Set_1_rs/013a.jpg","67","","indoor","SL","","","","","","","","","","","","","",""
"image-keyboard-response","41","182282","0.0-2.0-6.0-0.20","1388.7999999523163","","","stimuli/Set_1_rs/075a.jpg","67","","indoor","SL","","","","","","","","","","","","","",""
"image-keyboard-response","42","184784","0.0-2.0-6.0-0.21","null","","","stimuli/Set_1_rs/150a.jpg","null","","null","SR","","","","","","","","","","","","","",""
"image-keyboard-response","43","187286","0.0-2.0-6.0-0.22","1057.3999999761581","","","stimuli/Set_1_rs/094a.jpg","67","","indoor","SL","","","","","","","","","","","","","",""
"image-keyboard-response","44","189788","0.0-2.0-6.0-0.23","1066.5","","","stimuli/Set_1_rs/090a.jpg","77","","outdoor","SL","","","","","","","","","","","","","",""
"image-keyboard-response","45","192292","0.0-2.0-6.0-0.24","1267.8000000715256","","","stimuli/Set_1_rs/192a.jpg","67","","indoor","SR","","","","","","","","","","","","","",""
"image-keyboard-response","46","194794","0.0-2.0-6.0-0.25","1197.6000000238419","","","stimuli/Set_1_rs/116a.jpg","67","","indoor","SL","","","","","","","","","","","","","",""
"image-keyboard-response","47","197296","0.0-2.0-6.0-0.26","935.3999999761581","","","stimuli/Set_1_rs/044a.jpg","67","","indoor","SR","","","","","","","","","","","","","",""
"image-keyboard-response","48","199799","0.0-2.0-6.0-0.27","1441.2999999523163","","","stimuli/Set_1_rs/114a.jpg","67","","indoor","SL","","","","","","","","","","","","","",""
"image-keyboard-response","49","202302","0.0-2.0-6.0-0.28","1050.1000000238419","","","stimuli/Set_1_rs/112a.jpg","67","","indoor","SR","","","","","","","","","","","","","",""
"image-keyboard-response","50","204804","0.0-2.0-6.0-0.29","899.3000000715256","","","stimuli/Set_1_rs/052a.jpg","67","","indoor","SL","","","","","","","","","","","","","",""
"image-keyboard-response","51","207307","0.0-2.0-6.0-0.30","1213.5","","","stimuli/Set_1_rs/058a.jpg","67","","indoor","SR","","","","","","","","","","","","","",""
"image-keyboard-response","52","209809","0.0-2.0-6.0-0.31","1318.5","","","stimuli/Set_1_rs/023a.jpg","67","","indoor","SL","","","","","","","","","","","","","",""
"image-keyboard-response","53","212311","0.0-2.0-6.0-0.32","1360","","","stimuli/Set_1_rs/030a.jpg","67","","indoor","SR","","","","","","","","","","","","","",""
"image-keyboard-response","54","214813","0.0-2.0-6.0-0.33","1594","","","stimuli/Set_1_rs/091a.jpg","67","","indoor","SR","","","","","","","","","","","","","",""
"image-keyboard-response","55","217315","0.0-2.0-6.0-0.34","1427.8999999761581","","","stimuli/Set_1_rs/147a.jpg","67","","indoor","SR","","","","","","","","","","","","","",""
"image-keyboard-response","56","219817","0.0-2.0-6.0-0.35","1117.8999999761581","","","stimuli/Set_1_rs/063a.jpg","77","","outdoor","SR","","","","","","","","","","","","","",""
"image-keyboard-response","57","222320","0.0-2.0-6.0-0.36","967.1999999284744","","","stimuli/Set_1_rs/040a.jpg","77","","outdoor","SR","","","","","","","","","","","","","",""
"image-keyboard-response","58","224821","0.0-2.0-6.0-0.37","897.7999999523163","","","stimuli/Set_1_rs/038a.jpg","67","","indoor","SR","","","","","","","","","","","","","",""
"image-keyboard-response","59","227323","0.0-2.0-6.0-0.38","1340.2999999523163","","","stimuli/Set_1_rs/100a.jpg","67","","indoor","SL","","","","","","","","","","","","","",""
"image-keyboard-response","60","229825","0.0-2.0-6.0-0.39","1733.9000000953674","","","stimuli/Set_1_rs/109a.jpg","67","","indoor","SR","","","","","","","","","","","","","",""
"image-keyboard-response","61","232328","0.0-2.0-6.0-0.40","1295.1000000238419","","","stimuli/Set_1_rs/191a.jpg","67","","indoor","SR","","","","","","","","","","","","","",""
"image-keyboard-response","62","234830","0.0-2.0-6.0-0.41","1001.5999999046326","","","stimuli/Set_1_rs/061a.jpg","67","","indoor","SL","","","","","","","","","","","","","",""
"image-keyboard-response","63","237332","0.0-2.0-6.0-0.42","1011.2000000476837","","","stimuli/Set_1_rs/162a.jpg","67","","indoor","SR","","","","","","","","","","","","","",""
"image-keyboard-response","64","239834","0.0-2.0-6.0-0.43","876.8000000715256","","","stimuli/Set_1_rs/046a.jpg","67","","indoor","SR","","","","","","","","","","","","","",""
"image-keyboard-response","65","242336","0.0-2.0-6.0-0.44","1126.2000000476837","","","stimuli/Set_1_rs/155a.jpg","77","","outdoor","SL","","","","","","","","","","","","","",""
"image-keyboard-response","66","244838","0.0-2.0-6.0-0.45","1696.8000000715256","","","stimuli/Set_1_rs/010a.jpg","67","","indoor","SR","","","","","","","","","","","","","",""
"image-keyboard-response","67","247340","0.0-2.0-6.0-0.46","1386.7999999523163","","","stimuli/Set_1_rs/142a.jpg","77","","outdoor","SR","","","","","","","","","","","","","",""
"image-keyboard-response","68","249842","0.0-2.0-6.0-0.47","1589.2000000476837","","","stimuli/Set_1_rs/045a.jpg","67","","indoor","SL","","","","","","","","","","","","","",""
"image-keyboard-response","69","252344","0.0-2.0-6.0-0.48","1246.5","","","stimuli/Set_1_rs/070a.jpg","77","","outdoor","SR","","","","","","","","","","","","","",""
"image-keyboard-response","70","254846","0.0-2.0-6.0-0.49","1433.1000000238419","","","stimuli/Set_1_rs/022a.jpg","67","","indoor","SL","","","","","","","","","","","","","",""
"image-keyboard-response","71","257348","0.0-2.0-6.0-0.50","1810.7999999523163","","","stimuli/Set_1_rs/021a.jpg","77","","outdoor","SR","","","","","","","","","","","","","",""
"image-keyboard-response","72","259850","0.0-2.0-6.0-0.51","1004.3999999761581","","","stimuli/Set_1_rs/098a.jpg","67","","indoor","SL","","","","","","","","","","","","","",""
"image-keyboard-response","73","262353","0.0-2.0-6.0-0.52","1941.7999999523163","","","stimuli/Set_1_rs/008a.jpg","67","","indoor","SL","","","","","","","","","","","","","",""
"image-keyboard-response","74","264854","0.0-2.0-6.0-0.53","879.8999999761581","","","stimuli/Set_1_rs/012a.jpg","67","","indoor","SL","","","","","","","","","","","","","",""
"image-keyboard-response","75","267356","0.0-2.0-6.0-0.54","1482.5","","","stimuli/Set_1_rs/153a.jpg","67","","indoor","SR","","","","","","","","","","","","","",""
"image-keyboard-response","76","269858","0.0-2.0-6.0-0.55","1204.6999999284744","","","stimuli/Set_1_rs/068a.jpg","67","","indoor","SL","","","","","","","","","","","","","",""
"image-keyboard-response","77","272360","0.0-2.0-6.0-0.56","814.2000000476837","","","stimuli/Set_1_rs/140a.jpg","67","","indoor","SL","","","","","","","","","","","","","",""
"image-keyboard-response","78","274862","0.0-2.0-6.0-0.57","1752.1000000238419","","","stimuli/Set_1_rs/029a.jpg","67","","indoor","SR","","","","","","","","","","","","","",""
"image-keyboard-response","79","277364","0.0-2.0-6.0-0.58","834","","","stimuli/Set_1_rs/049a.jpg","67","","indoor","SR","","","","","","","","","","","","","",""
"image-keyboard-response","80","279866","0.0-2.0-6.0-0.59","684.6000000238419","","","stimuli/Set_1_rs/180a.jpg","67","","indoor","SR","","","","","","","","","","","","","",""
"image-keyboard-response","81","282368","0.0-2.0-6.0-0.60","1062.2000000476837","","","stimuli/Set_1_rs/033a.jpg","67","","indoor","SL","","","","","","","","","","","","","",""
"image-keyboard-response","82","284870","0.0-2.0-6.0-0.61","2144.100000023842","","","stimuli/Set_1_rs/119a.jpg","67","","indoor","SL","","","","","","","","","","","","","",""
"image-keyboard-response","83","287372","0.0-2.0-6.0-0.62","922","","","stimuli/Set_1_rs/118a.jpg","77","","outdoor","SR","","","","","","","","","","","","","",""
"image-keyboard-response","84","289873","0.0-2.0-6.0-0.63","1236.5","","","stimuli/Set_1_rs/107a.jpg","67","","indoor","SR","","","","","","","","","","","","","",""
"html-keyboard-response","85","295138","0.0-2.0-7.0","5263.399999976158","","","<p>Vége a feladat első részének. Tartson egy pár perces szünetet.</p>","32","","","","","","","","","","","","","","","","",""
"html-keyboard-response","86","318305","0.0-2.0-8.0-0.0","23166.899999976158","","","<p>A következőkben ismét tárgyak jelennek majd meg a képernyőn, egymás után.<br>Az Ön feladata eldönteni, látta-e már ezeket a tárgyakat a vizsgálat első felében.</p>		        			<p>Amennyiben pontosan ugyanezt a tárgyat látta (a tárgy <i>régi</i>), nyomja le a <b>C</b> billentyűt.</p>		        			<p>Amennyiben hasonló tárgyat látott (a tárgy <i>hasonló</i>), nyomja le a <b>B</b> billentyűt.</p>		        			<p>Amennyiben nem látta ezt a tárgyat az első részben (a tárgy <i>új</i>), nyomja le az <b>M</b> billentyűt.</p>","32","","","","","","","","","","","","","","","","",""
"html-keyboard-response","87","320306","0.0-2.0-8.0-1.0","null","","","<p>Kezdődik a gyakorlás...</p>","null","","","","","","","","","","","","","","","","",""
"image-keyboard-response","88","324310","0.0-2.0-9.0-0.0","1851.7999999523163","","","stimuli/Set_2_rs/049b.jpg","67","","","TL","l","false","o","","","","","","","","","","",""
"html-keyboard-response","89","327105","0.0-2.0-9.0-1.0","2793.399999976158","","","<p>A helyes válasz: Hasonló.</p><p>Az Ön válasza: Régi.</p>","32","","","","","","","","","","","","","","","","",""
"image-keyboard-response","90","331108","0.0-2.0-9.0-0.1","2766.100000023842","","","stimuli/Set_2_rs/018b.jpg","77","","","TF","n","true","n","","","","","","","","","","",""
"html-keyboard-response","91","332993","0.0-2.0-9.0-1.1","1882.8999999761581","","","<p>A helyes válasz: Új.</p><p>Az Ön válasza: Új.</p>","32","","","","","","","","","","","","","","","","",""
"image-keyboard-response","92","336995","0.0-2.0-9.0-0.2","1934","","","stimuli/Set_2_rs/028a.jpg","67","","","TR","o","true","o","","","","","","","","","","",""
"html-keyboard-response","93","338945","0.0-2.0-9.0-1.2","1947.8999999761581","","","<p>A helyes válasz: Régi.</p><p>Az Ön válasza: Régi.</p>","32","","","","","","","","","","","","","","","","",""
"image-keyboard-response","94","342947","0.0-2.0-9.0-0.3","1134.1999999284744","","","stimuli/Set_2_rs/137a.jpg","67","","","TR","o","true","o","","","","","","","","","","",""
"html-keyboard-response","95","344513","0.0-2.0-9.0-1.3","1563.9000000953674","","","<p>A helyes válasz: Régi.</p><p>Az Ön válasza: Régi.</p>","32","","","","","","","","","","","","","","","","",""
"image-keyboard-response","96","348515","0.0-2.0-9.0-0.4","1054.1000000238419","","","stimuli/Set_2_rs/135b.jpg","67","","","TL","l","false","o","","","","","","","","","","",""
"html-keyboard-response","97","350209","0.0-2.0-9.0-1.4","1691.8000000715256","","","<p>A helyes válasz: Hasonló.</p><p>Az Ön válasza: Régi.</p>","32","","","","","","","","","","","","","","","","",""
"image-keyboard-response","98","354211","0.0-2.0-9.0-0.5","null","","","stimuli/Set_2_rs/019a.jpg","null","","","TF","n","false","null","","","","","","","","","","",""
"html-keyboard-response","99","356833","0.0-2.0-9.0-1.5","2620.3000000715256","","","<p>A helyes válasz: Új.</p><p>Nem adott választ.</p>","32","","","","","","","","","","","","","","","","",""
"html-keyboard-response","100","362881","0.0-2.0-10.0-0.0","6047.200000047684","","","<p>Ez volt a gyakorlás. A feladat következik. A feladat alatt már nem kap visszajelzést.</p>","32","","","","","","","","","","","","","","","","",""
"html-keyboard-response","101","364882","0.0-2.0-10.0-1.0","null","","","<p>Kezdődik a feladat...</p>","null","","","","","","","","","","","","","","","","",""
"image-keyboard-response","102","369385","0.0-2.0-11.0-0.0","2108.100000023842","","","stimuli/Set_1_rs/181a.jpg","77","","","TF","n","true","n","","","","","","","","","","",""
"image-keyboard-response","103","373888","0.0-2.0-11.0-0.1","1189","","","stimuli/Set_1_rs/152a.jpg","77","","","TF","n","true","n","","","","","","","","","","",""
"image-keyboard-response","104","378392","0.0-2.0-11.0-0.2","1725.5","","","stimuli/Set_1_rs/090b.jpg","67","","","TL","s","false","o","","","","","","","","","","",""
"image-keyboard-response","105","382895","0.0-2.0-11.0-0.3","1173.7999999523163","","","stimuli/Set_1_rs/126a.jpg","77","","","TF","n","true","n","","","","","","","","","","",""
"image-keyboard-response","106","387397","0.0-2.0-11.0-0.4","1966.8999999761581","","","stimuli/Set_1_rs/068b.jpg","67","","","TL","s","false","o","","","","","","","","","","",""
"image-keyboard-response","107","391900","0.0-2.0-11.0-0.5","1512.4000000953674","","","stimuli/Set_1_rs/054a.jpg","67","","","TR","o","true","o","","","","","","","","","","",""
"image-keyboard-response","108","396403","0.0-2.0-11.0-0.6","1313.8000000715256","","","stimuli/Set_1_rs/162a.jpg","67","","","TR","o","true","o","","","","","","","","","","",""
"image-keyboard-response","109","400906","0.0-2.0-11.0-0.7","2074.2000000476837","","","stimuli/Set_1_rs/019a.jpg","77","","","TF","n","true","n","","","","","","","","","","",""
"image-keyboard-response","110","405410","0.0-2.0-11.0-0.8","1363.1000000238419","","","stimuli/Set_1_rs/119b.jpg","67","","","TL","s","false","o","","","","","","","","","","",""
"image-keyboard-response","111","409913","0.0-2.0-11.0-0.9","2668.1999999284744","","","stimuli/Set_1_rs/052b.jpg","77","","","TL","s","false","n","","","","","","","","","","",""
"image-keyboard-response","112","414416","0.0-2.0-11.0-0.10","1748.5999999046326","","","stimuli/Set_1_rs/135a.jpg","77","","","TF","n","true","n","","","","","","","","","","",""
"image-keyboard-response","113","418919","0.0-2.0-11.0-0.11","1085.7000000476837","","","stimuli/Set_1_rs/004a.jpg","77","","","TF","n","true","n","","","","","","","","","","",""
"image-keyboard-response","114","423423","0.0-2.0-11.0-0.12","1062.1000000238419","","","stimuli/Set_1_rs/072a.jpg","77","","","TF","n","true","n","","","","","","","","","","",""
"image-keyboard-response","115","427927","0.0-2.0-11.0-0.13","1422.6000000238419","","","stimuli/Set_1_rs/028a.jpg","77","","","TF","n","true","n","","","","","","","","","","",""
"image-keyboard-response","116","432429","0.0-2.0-11.0-0.14","1718.5999999046326","","","stimuli/Set_1_rs/091a.jpg","67","","","TR","o","true","o","","","","","","","","","","",""
"image-keyboard-response","117","436932","0.0-2.0-11.0-0.15","1103.7000000476837","","","stimuli/Set_1_rs/108a.jpg","77","","","TF","n","true","n","","","","","","","","","","",""
"image-keyboard-response","118","441436","0.0-2.0-11.0-0.16","3832.600000023842","","","stimuli/Set_1_rs/146a.jpg","66","","","TF","n","false","s","","","","","","","","","","",""
"image-keyboard-response","119","445938","0.0-2.0-11.0-0.17","2321.2999999523163","","","stimuli/Set_1_rs/013b.jpg","67","","","TL","s","false","o","","","","","","","","","","",""
"image-keyboard-response","120","450441","0.0-2.0-11.0-0.18","2650.600000023842","","","stimuli/Set_1_rs/141a.jpg","66","","","TF","n","false","s","","","","","","","","","","",""
"image-keyboard-response","121","454944","0.0-2.0-11.0-0.19","1459.6999999284744","","","stimuli/Set_1_rs/156b.jpg","67","","","TL","s","false","o","","","","","","","","","","",""
"image-keyboard-response","122","459447","0.0-2.0-11.0-0.20","1373","","","stimuli/Set_1_rs/024a.jpg","67","","","TR","o","true","o","","","","","","","","","","",""
"image-keyboard-response","123","463950","0.0-2.0-11.0-0.21","1125.6000000238419","","","stimuli/Set_1_rs/046a.jpg","67","","","TR","o","true","o","","","","","","","","","","",""
"image-keyboard-response","124","468453","0.0-2.0-11.0-0.22","974.9000000953674","","","stimuli/Set_1_rs/100b.jpg","67","","","TL","s","false","o","","","","","","","","","","",""
"image-keyboard-response","125","472956","0.0-2.0-11.0-0.23","2344.399999976158","","","stimuli/Set_1_rs/080a.jpg","66","","","TF","n","false","s","","","","","","","","","","",""
"image-keyboard-response","126","477458","0.0-2.0-11.0-0.24","1889.2999999523163","","","stimuli/Set_1_rs/094b.jpg","67","","","TL","s","false","o","","","","","","","","","","",""
"image-keyboard-response","127","481961","0.0-2.0-11.0-0.25","2042.7000000476837","","","stimuli/Set_1_rs/190a.jpg","77","","","TF","n","true","n","","","","","","","","","","",""
"image-keyboard-response","128","486464","0.0-2.0-11.0-0.26","1459.8999999761581","","","stimuli/Set_1_rs/137a.jpg","67","","","TR","o","true","o","","","","","","","","","","",""
"image-keyboard-response","129","490966","0.0-2.0-11.0-0.27","1101.0999999046326","","","stimuli/Set_1_rs/180a.jpg","67","","","TR","o","true","o","","","","","","","","","","",""
"image-keyboard-response","130","495469","0.0-2.0-11.0-0.28","998.7999999523163","","","stimuli/Set_1_rs/134b.jpg","67","","","TL","s","false","o","","","","","","","","","","",""
"image-keyboard-response","131","499972","0.0-2.0-11.0-0.29","1695.5","","","stimuli/Set_1_rs/088a.jpg","77","","","TF","n","true","n","","","","","","","","","","",""
"image-keyboard-response","132","504474","0.0-2.0-11.0-0.30","1080.7000000476837","","","stimuli/Set_1_rs/165a.jpg","77","","","TF","n","true","n","","","","","","","","","","",""
"image-keyboard-response","133","508977","0.0-2.0-11.0-0.31","2546.5","","","stimuli/Set_1_rs/075b.jpg","66","","","TL","s","true","s","","","","","","","","","","",""
"image-keyboard-response","134","513481","0.0-2.0-11.0-0.32","1675","","","stimuli/Set_1_rs/191a.jpg","67","","","TR","o","true","o","","","","","","","","","","",""
"image-keyboard-response","135","517984","0.0-2.0-11.0-0.33","883.1000000238419","","","stimuli/Set_1_rs/112a.jpg","67","","","TR","o","true","o","","","","","","","","","","",""
"image-keyboard-response","136","522487","0.0-2.0-11.0-0.34","1372.2999999523163","","","stimuli/Set_1_rs/171a.jpg","77","","","TF","n","true","n","","","","","","","","","","",""
"image-keyboard-response","137","526991","0.0-2.0-11.0-0.35","1077.3999999761581","","","stimuli/Set_1_rs/021a.jpg","67","","","TR","o","true","o","","","","","","","","","","",""
"image-keyboard-response","138","531493","0.0-2.0-11.0-0.36","1853.3999999761581","","","stimuli/Set_1_rs/157a.jpg","77","","","TR","o","false","n","","","","","","","","","","",""
"image-keyboard-response","139","535996","0.0-2.0-11.0-0.37","2103.0999999046326","","","stimuli/Set_1_rs/059b.jpg","67","","","TL","s","false","o","","","","","","","","","","",""
"image-keyboard-response","140","540499","0.0-2.0-11.0-0.38","959.6000000238419","","","stimuli/Set_1_rs/153a.jpg","67","","","TR","o","true","o","","","","","","","","","","",""
"image-keyboard-response","141","545001","0.0-2.0-11.0-0.39","1513.3000000715256","","","stimuli/Set_1_rs/002a.jpg","77","","","TF","n","true","n","","","","","","","","","","",""
"image-keyboard-response","142","549504","0.0-2.0-11.0-0.40","1250.8000000715256","","","stimuli/Set_1_rs/041a.jpg","77","","","TF","n","true","n","","","","","","","","","","",""
"image-keyboard-response","143","554007","0.0-2.0-11.0-0.41","1499.3999999761581","","","stimuli/Set_1_rs/012b.jpg","67","","","TL","s","false","o","","","","","","","","","","",""
"image-keyboard-response","144","558511","0.0-2.0-11.0-0.42","2020.5","","","stimuli/Set_1_rs/083b.jpg","67","","","TL","s","false","o","","","","","","","","","","",""
"image-keyboard-response","145","563013","0.0-2.0-11.0-0.43","1549.5","","","stimuli/Set_1_rs/051a.jpg","77","","","TF","n","true","n","","","","","","","","","","",""
"image-keyboard-response","146","567516","0.0-2.0-11.0-0.44","1094.8999999761581","","","stimuli/Set_1_rs/168a.jpg","77","","","TF","n","true","n","","","","","","","","","","",""
"image-keyboard-response","147","572019","0.0-2.0-11.0-0.45","2815.899999976158","","","stimuli/Set_1_rs/155b.jpg","67","","","TL","s","false","o","","","","","","","","","","",""
"image-keyboard-response","148","576522","0.0-2.0-11.0-0.46","1305","","","stimuli/Set_1_rs/045b.jpg","67","","","TL","s","false","o","","","","","","","","","","",""
"image-keyboard-response","149","581025","0.0-2.0-11.0-0.47","2241.8000000715256","","","stimuli/Set_1_rs/031b.jpg","77","","","TL","s","false","n","","","","","","","","","","",""
"image-keyboard-response","150","585528","0.0-2.0-11.0-0.48","2091","","","stimuli/Set_1_rs/136a.jpg","67","","","TR","o","true","o","","","","","","","","","","",""
"image-keyboard-response","151","590030","0.0-2.0-11.0-0.49","2483.7999999523163","","","stimuli/Set_1_rs/053a.jpg","77","","","TF","n","true","n","","","","","","","","","","",""
"image-keyboard-response","152","594533","0.0-2.0-11.0-0.50","2685","","","stimuli/Set_1_rs/061b.jpg","66","","","TL","s","true","s","","","","","","","","","","",""
"image-keyboard-response","153","599036","0.0-2.0-11.0-0.51","2054.7000000476837","","","stimuli/Set_1_rs/062a.jpg","77","","","TF","n","true","n","","","","","","","","","","",""
"image-keyboard-response","154","603539","0.0-2.0-11.0-0.52","1311.1999999284744","","","stimuli/Set_1_rs/009a.jpg","67","","","TR","o","true","o","","","","","","","","","","",""
"image-keyboard-response","155","608042","0.0-2.0-11.0-0.53","1560.4000000953674","","","stimuli/Set_1_rs/099b.jpg","67","","","TL","s","false","o","","","","","","","","","","",""
"image-keyboard-response","156","612545","0.0-2.0-11.0-0.54","2304.899999976158","","","stimuli/Set_1_rs/030a.jpg","67","","","TR","o","true","o","","","","","","","","","","",""
"image-keyboard-response","157","617048","0.0-2.0-11.0-0.55","1834.2000000476837","","","stimuli/Set_1_rs/029a.jpg","67","","","TR","o","true","o","","","","","","","","","","",""
"image-keyboard-response","158","621551","0.0-2.0-11.0-0.56","1603.3000000715256","","","stimuli/Set_1_rs/140b.jpg","67","","","TL","s","false","o","","","","","","","","","","",""
"image-keyboard-response","159","626054","0.0-2.0-11.0-0.57","1516.1000000238419","","","stimuli/Set_1_rs/182a.jpg","77","","","TF","n","true","n","","","","","","","","","","",""
"image-keyboard-response","160","630556","0.0-2.0-11.0-0.58","2757.2000000476837","","","stimuli/Set_1_rs/151a.jpg","77","","","TF","n","true","n","","","","","","","","","","",""
"image-keyboard-response","161","635059","0.0-2.0-11.0-0.59","2398.5","","","stimuli/Set_1_rs/142a.jpg","67","","","TR","o","true","o","","","","","","","","","","",""
"image-keyboard-response","162","639562","0.0-2.0-11.0-0.60","1063.7000000476837","","","stimuli/Set_1_rs/070a.jpg","67","","","TR","o","true","o","","","","","","","","","","",""
"image-keyboard-response","163","644065","0.0-2.0-11.0-0.61","1152.5","","","stimuli/Set_1_rs/121a.jpg","77","","","TF","n","true","n","","","","","","","","","","",""
"image-keyboard-response","164","648568","0.0-2.0-11.0-0.62","2633.5","","","stimuli/Set_1_rs/008b.jpg","66","","","TL","s","true","s","","","","","","","","","","",""
"image-keyboard-response","165","653071","0.0-2.0-11.0-0.63","2178.5","","","stimuli/Set_1_rs/092b.jpg","67","","","TL","s","false","o","","","","","","","","","","",""
"image-keyboard-response","166","657573","0.0-2.0-11.0-0.64","971.9000000953674","","","stimuli/Set_1_rs/192a.jpg","67","","","TR","o","true","o","","","","","","","","","","",""
"image-keyboard-response","167","662076","0.0-2.0-11.0-0.65","2501.100000023842","","","stimuli/Set_1_rs/147a.jpg","66","","","TR","o","false","s","","","","","","","","","","",""
"image-keyboard-response","168","666579","0.0-2.0-11.0-0.66","1133.7000000476837","","","stimuli/Set_1_rs/032a.jpg","77","","","TF","n","true","n","","","","","","","","","","",""
"image-keyboard-response","169","671082","0.0-2.0-11.0-0.67","1302.7999999523163","","","stimuli/Set_1_rs/128b.jpg","67","","","TL","s","false","o","","","","","","","","","","",""
"image-keyboard-response","170","675585","0.0-2.0-11.0-0.68","2383.600000023842","","","stimuli/Set_1_rs/186a.jpg","66","","","TF","n","false","s","","","","","","","","","","",""
"image-keyboard-response","171","680088","0.0-2.0-11.0-0.69","1528.7999999523163","","","stimuli/Set_1_rs/109a.jpg","67","","","TR","o","true","o","","","","","","","","","","",""
"image-keyboard-response","172","684591","0.0-2.0-11.0-0.70","2274.1999999284744","","","stimuli/Set_1_rs/160a.jpg","77","","","TF","n","true","n","","","","","","","","","","",""
"image-keyboard-response","173","689094","0.0-2.0-11.0-0.71","1211.1999999284744","","","stimuli/Set_1_rs/086a.jpg","67","","","TR","o","true","o","","","","","","","","","","",""
"image-keyboard-response","174","693596","0.0-2.0-11.0-0.72","1396.3000000715256","","","stimuli/Set_1_rs/023b.jpg","67","","","TL","s","false","o","","","","","","","","","","",""
"image-keyboard-response","175","698100","0.0-2.0-11.0-0.73","1661.3999999761581","","","stimuli/Set_1_rs/114b.jpg","67","","","TL","s","false","o","","","","","","","","","","",""
"image-keyboard-response","176","702603","0.0-2.0-11.0-0.74","950","","","stimuli/Set_1_rs/033b.jpg","67","","","TL","s","false","o","","","","","","","","","","",""
"image-keyboard-response","177","707106","0.0-2.0-11.0-0.75","1022.6000000238419","","","stimuli/Set_1_rs/010a.jpg","67","","","TR","o","true","o","","","","","","","","","","",""
"image-keyboard-response","178","711608","0.0-2.0-11.0-0.76","1112","","","stimuli/Set_1_rs/150a.jpg","67","","","TR","o","true","o","","","","","","","","","","",""
"image-keyboard-response","179","716112","0.0-2.0-11.0-0.77","1057.2999999523163","","","stimuli/Set_1_rs/038a.jpg","67","","","TR","o","true","o","","","","","","","","","","",""
"image-keyboard-response","180","720614","0.0-2.0-11.0-0.78","985.8999999761581","","","stimuli/Set_1_rs/022b.jpg","67","","","TL","s","false","o","","","","","","","","","","",""
"image-keyboard-response","181","725117","0.0-2.0-11.0-0.79","1459","","","stimuli/Set_1_rs/018a.jpg","77","","","TF","n","true","n","","","","","","","","","","",""
"image-keyboard-response","182","729620","0.0-2.0-11.0-0.80","1036.5999999046326","","","stimuli/Set_1_rs/081a.jpg","77","","","TF","n","true","n","","","","","","","","","","",""
"image-keyboard-response","183","734123","0.0-2.0-11.0-0.81","1573.3000000715256","","","stimuli/Set_1_rs/107a.jpg","67","","","TR","o","true","o","","","","","","","","","","",""
"image-keyboard-response","184","738626","0.0-2.0-11.0-0.82","797.8999999761581","","","stimuli/Set_1_rs/101b.jpg","67","","","TL","s","false","o","","","","","","","","","","",""
"image-keyboard-response","185","743130","0.0-2.0-11.0-0.83","1670.6000000238419","","","stimuli/Set_1_rs/178b.jpg","67","","","TL","s","false","o","","","","","","","","","","",""
"image-keyboard-response","186","747633","0.0-2.0-11.0-0.84","2495.2000000476837","","","stimuli/Set_1_rs/103b.jpg","66","","","TL","s","true","s","","","","","","","","","","",""
"image-keyboard-response","187","752136","0.0-2.0-11.0-0.85","1095.8999999761581","","","stimuli/Set_1_rs/116b.jpg","67","","","TL","s","false","o","","","","","","","","","","",""
"image-keyboard-response","188","756640","0.0-2.0-11.0-0.86","2128.7999999523163","","","stimuli/Set_1_rs/122a.jpg","77","","","TF","n","true","n","","","","","","","","","","",""
"image-keyboard-response","189","761143","0.0-2.0-11.0-0.87","1145.5","","","stimuli/Set_1_rs/044a.jpg","67","","","TR","o","true","o","","","","","","","","","","",""
"image-keyboard-response","190","765646","0.0-2.0-11.0-0.88","994.2000000476837","","","stimuli/Set_1_rs/049a.jpg","67","","","TR","o","true","o","","","","","","","","","","",""
"image-keyboard-response","191","770149","0.0-2.0-11.0-0.89","971.2000000476837","","","stimuli/Set_1_rs/118a.jpg","67","","","TR","o","true","o","","","","","","","","","","",""
"image-keyboard-response","192","774652","0.0-2.0-11.0-0.90","868.3999999761581","","","stimuli/Set_1_rs/040a.jpg","67","","","TR","o","true","o","","","","","","","","","","",""
"image-keyboard-response","193","779155","0.0-2.0-11.0-0.91","861.2000000476837","","","stimuli/Set_1_rs/011b.jpg","67","","","TL","s","false","o","","","","","","","","","","",""
"image-keyboard-response","194","783657","0.0-2.0-11.0-0.92","1254.3000000715256","","","stimuli/Set_1_rs/087a.jpg","77","","","TF","n","true","n","","","","","","","","","","",""
"image-keyboard-response","195","788160","0.0-2.0-11.0-0.93","1455.6000000238419","","","stimuli/Set_1_rs/063a.jpg","67","","","TR","o","true","o","","","","","","","","","","",""
"image-keyboard-response","196","792663","0.0-2.0-11.0-0.94","952.6000000238419","","","stimuli/Set_1_rs/098b.jpg","67","","","TL","s","false","o","","","","","","","","","","",""
"image-keyboard-response","197","797166","0.0-2.0-11.0-0.95","898.2000000476837","","","stimuli/Set_1_rs/058a.jpg","67","","","TR","o","true","o","","","","","","","","","","",""
"html-keyboard-response","198","807275","0.0-3.0","10107.299999952316","","","<p>Vége a feladatnak. Köszönjük a részvételt!</p>","220","","","","","","","32","1","1","28","4","2","0","4","29","0.9411764705882353","-0.0035650623885918054"
