"trial_type","trial_index","time_elapsed","internal_node_id","rt","responses","success","stimulus","key_press","cond","enc_response","condition","correct_response","correct","rec_response","targ_old","targ_sim","targ_new","lure_old","lure_sim","lure_new","foil_old","foil_sim","foil_new","recognition_ratio","ldi"
"pavlovia","0","6","0.0-0.0","","","","","","","","","","","","","","","","","","","","","",""
"survey-multi-choice","1","11285","0.0-1.0","11274.399999976158","{""Q0"":""Igen"",""Q1"":""Igen""}","","","","","","","","","","","","","","","","","","","",""
"survey-text","2","17961","0.0-2.0-0.0","6673.899999976158","{""Q0"":""851046""}","","","","","","","","","","","","","","","","","","","",""
"fullscreen","3","19751","0.0-2.0-1.0","","","true","","","","","","","","","","","","","","","","","","",""
"html-keyboard-response","4","35975","0.0-2.0-2.0","16223.100000023842","","","<p>Üdvözöljük! Ez a feladat két részből áll, és összesen 10-15 percet vesz igénybe.</p>","77","","","","","","","","","","","","","","","","",""
"html-keyboard-response","5","74390","0.0-2.0-3.0-0.0","38412.90000009537","","","<p>Az első részben tárgyakat lát majd a képernyőn, egymás után fognak megjelenni.<br>Az Ön feladata eldönteni, hogy a tárgyak <i>beltéri vagy kültéri</i> tárgyak-e.</p>						   <p>Amennyiben a tárgyat általában beltéren látja, nyomja le a <b>C</b> billentyűt. Amennyiben a tárgyat általában kültéren látja, nyomja le az <b>M</b> billentyűt.</p>						   <p>Ebben a feladatban nincsen mindig egyértelműen jó megoldás. Válaszoljon legjobb tudása szerint. A válaszadásra 2 másodperce lesz.","32","","","","","","","","","","","","","","","","",""
"html-keyboard-response","6","76392","0.0-2.0-3.0-1.0","null","","","<p>Kezdődik a gyakorlás...</p>","null","","","","","","","","","","","","","","","","",""
"image-keyboard-response","7","78396","0.0-2.0-4.0-0.0","1994.8999999761581","","","stimuli/Set_2_rs/165b.jpg","77","-","outdoor","","","","","","","","","","","","","","",""
"html-keyboard-response","8","82262","0.0-2.0-4.0-1.0","3363.7000000476837","","","<p>Az Ön válasza:</p><p>Kültéri.</p>","32","","","","","","","","","","","","","","","","",""
"image-keyboard-response","9","84264","0.0-2.0-4.0-0.1","1389.7999999523163","","","stimuli/Set_2_rs/034a.jpg","67","-","indoor","","","","","","","","","","","","","","",""
"html-keyboard-response","10","87558","0.0-2.0-4.0-1.1","2790.5999999046326","","","<p>Az Ön válasza:</p><p>Beltéri.</p>","32","","","","","","","","","","","","","","","","",""
"image-keyboard-response","11","89560","0.0-2.0-4.0-0.2","1950.2000000476837","","","stimuli/Set_2_rs/049a.jpg","77","SL","outdoor","","","","","","","","","","","","","","",""
"html-keyboard-response","12","92646","0.0-2.0-4.0-1.2","2583","","","<p>Az Ön válasza:</p><p>Kültéri.</p>","32","","","","","","","","","","","","","","","","",""
"image-keyboard-response","13","94648","0.0-2.0-4.0-0.3","null","","","stimuli/Set_2_rs/028a.jpg","null","SR","null","","","","","","","","","","","","","","",""
"html-keyboard-response","14","99958","0.0-2.0-4.0-1.3","4806.600000023842","","","<p>Az Ön válasza:</p><p>Nem adott választ.</p>","32","","","","","","","","","","","","","","","","",""
"image-keyboard-response","15","101961","0.0-2.0-4.0-0.4","1517.8999999761581","","","stimuli/Set_2_rs/135a.jpg","67","SL","indoor","","","","","","","","","","","","","","",""
"html-keyboard-response","16","105557","0.0-2.0-4.0-1.4","3094.600000023842","","","<p>Az Ön válasza:</p><p>Beltéri.</p>","32","","","","","","","","","","","","","","","","",""
"image-keyboard-response","17","107559","0.0-2.0-4.0-0.5","null","","","stimuli/Set_2_rs/137a.jpg","null","SR","null","","","","","","","","","","","","","","",""
"html-keyboard-response","18","112485","0.0-2.0-4.0-1.5","4423.300000071526","","","<p>Az Ön válasza:</p><p>Nem adott választ.</p>","32","","","","","","","","","","","","","","","","",""
"html-keyboard-response","19","126517","0.0-2.0-5.0-0.0","14031","","","<p>Ez volt a gyakorlás. A feladat következik. A feladat alatt már nem kap visszajelzést.</p>","32","","","","","","","","","","","","","","","","",""
"html-keyboard-response","20","128519","0.0-2.0-5.0-1.0","null","","","<p>Kezdődik a feladat...</p>","null","","","","","","","","","","","","","","","","",""
"image-keyboard-response","21","131022","0.0-2.0-6.0-0.0","1403.7000000476837","","","stimuli/Set_1_rs/157a.jpg","67","","indoor","SR","","","","","","","","","","","","","",""
"image-keyboard-response","22","133525","0.0-2.0-6.0-0.1","1077.3000000715256","","","stimuli/Set_1_rs/009a.jpg","67","","indoor","SR","","","","","","","","","","","","","",""
"image-keyboard-response","23","136027","0.0-2.0-6.0-0.2","1375.1000000238419","","","stimuli/Set_1_rs/059a.jpg","67","","indoor","SL","","","","","","","","","","","","","",""
"image-keyboard-response","24","138528","0.0-2.0-6.0-0.3","1081.3999999761581","","","stimuli/Set_1_rs/024a.jpg","77","","outdoor","SR","","","","","","","","","","","","","",""
"image-keyboard-response","25","141031","0.0-2.0-6.0-0.4","1059","","","stimuli/Set_1_rs/101a.jpg","67","","indoor","SL","","","","","","","","","","","","","",""
"image-keyboard-response","26","143532","0.0-2.0-6.0-0.5","1069.2999999523163","","","stimuli/Set_1_rs/137a.jpg","77","","outdoor","SR","","","","","","","","","","","","","",""
"image-keyboard-response","27","146034","0.0-2.0-6.0-0.6","1591.6999999284744","","","stimuli/Set_1_rs/011a.jpg","67","","indoor","SL","","","","","","","","","","","","","",""
"image-keyboard-response","28","148536","0.0-2.0-6.0-0.7","1009.7999999523163","","","stimuli/Set_1_rs/128a.jpg","67","","indoor","SL","","","","","","","","","","","","","",""
"image-keyboard-response","29","151039","0.0-2.0-6.0-0.8","1243","","","stimuli/Set_1_rs/083a.jpg","67","","indoor","SL","","","","","","","","","","","","","",""
"image-keyboard-response","30","153541","0.0-2.0-6.0-0.9","1284.3999999761581","","","stimuli/Set_1_rs/136a.jpg","67","","indoor","SR","","","","","","","","","","","","","",""
"image-keyboard-response","31","156043","0.0-2.0-6.0-0.10","943.0999999046326","","","stimuli/Set_1_rs/103a.jpg","67","","indoor","SL","","","","","","","","","","","","","",""
"image-keyboard-response","32","158544","0.0-2.0-6.0-0.11","984.9000000953674","","","stimuli/Set_1_rs/086a.jpg","67","","indoor","SR","","","","","","","","","","","","","",""
"image-keyboard-response","33","161047","0.0-2.0-6.0-0.12","1634.8999999761581","","","stimuli/Set_1_rs/099a.jpg","77","","outdoor","SL","","","","","","","","","","","","","",""
"image-keyboard-response","34","163548","0.0-2.0-6.0-0.13","1597.2000000476837","","","stimuli/Set_1_rs/178a.jpg","67","","indoor","SL","","","","","","","","","","","","","",""
"image-keyboard-response","35","166050","0.0-2.0-6.0-0.14","1495.2000000476837","","","stimuli/Set_1_rs/134a.jpg","67","","indoor","SL","","","","","","","","","","","","","",""
"image-keyboard-response","36","168552","0.0-2.0-6.0-0.15","1122","","","stimuli/Set_1_rs/156a.jpg","67","","indoor","SL","","","","","","","","","","","","","",""
"image-keyboard-response","37","171055","0.0-2.0-6.0-0.16","1450.8999999761581","","","stimuli/Set_1_rs/054a.jpg","67","","indoor","SR","","","","","","","","","","","","","",""
"image-keyboard-response","38","173557","0.0-2.0-6.0-0.17","1093.2000000476837","","","stimuli/Set_1_rs/092a.jpg","77","","outdoor","SL","","","","","","","","","","","","","",""
"image-keyboard-response","39","176059","0.0-2.0-6.0-0.18","1518.7999999523163","","","stimuli/Set_1_rs/031a.jpg","67","","indoor","SL","","","","","","","","","","","","","",""
"image-keyboard-response","40","178560","0.0-2.0-6.0-0.19","1464.8999999761581","","","stimuli/Set_1_rs/013a.jpg","67","","indoor","SL","","","","","","","","","","","","","",""
"image-keyboard-response","41","181064","0.0-2.0-6.0-0.20","1970.5","","","stimuli/Set_1_rs/075a.jpg","67","","indoor","SL","","","","","","","","","","","","","",""
"image-keyboard-response","42","183566","0.0-2.0-6.0-0.21","2203.600000023842","","","stimuli/Set_1_rs/150a.jpg","67","","indoor","SR","","","","","","","","","","","","","",""
"image-keyboard-response","43","186068","0.0-2.0-6.0-0.22","1381.1000000238419","","","stimuli/Set_1_rs/094a.jpg","67","","indoor","SL","","","","","","","","","","","","","",""
"image-keyboard-response","44","188571","0.0-2.0-6.0-0.23","831.3999999761581","","","stimuli/Set_1_rs/090a.jpg","77","","outdoor","SL","","","","","","","","","","","","","",""
"image-keyboard-response","45","191073","0.0-2.0-6.0-0.24","1095.6999999284744","","","stimuli/Set_1_rs/192a.jpg","67","","indoor","SR","","","","","","","","","","","","","",""
"image-keyboard-response","46","193575","0.0-2.0-6.0-0.25","994","","","stimuli/Set_1_rs/116a.jpg","67","","indoor","SL","","","","","","","","","","","","","",""
"image-keyboard-response","47","196077","0.0-2.0-6.0-0.26","940.1000000238419","","","stimuli/Set_1_rs/044a.jpg","67","","indoor","SR","","","","","","","","","","","","","",""
"image-keyboard-response","48","198579","0.0-2.0-6.0-0.27","1126.3000000715256","","","stimuli/Set_1_rs/114a.jpg","67","","indoor","SL","","","","","","","","","","","","","",""
"image-keyboard-response","49","201081","0.0-2.0-6.0-0.28","911.7000000476837","","","stimuli/Set_1_rs/112a.jpg","67","","indoor","SR","","","","","","","","","","","","","",""
"image-keyboard-response","50","203583","0.0-2.0-6.0-0.29","906.2000000476837","","","stimuli/Set_1_rs/052a.jpg","67","","indoor","SL","","","","","","","","","","","","","",""
"image-keyboard-response","51","206085","0.0-2.0-6.0-0.30","1220.2999999523163","","","stimuli/Set_1_rs/058a.jpg","67","","indoor","SR","","","","","","","","","","","","","",""
"image-keyboard-response","52","208587","0.0-2.0-6.0-0.31","1022.2000000476837","","","stimuli/Set_1_rs/023a.jpg","67","","indoor","SL","","","","","","","","","","","","","",""
"image-keyboard-response","53","211089","0.0-2.0-6.0-0.32","1399.6000000238419","","","stimuli/Set_1_rs/030a.jpg","77","","outdoor","SR","","","","","","","","","","","","","",""
"image-keyboard-response","54","213591","0.0-2.0-6.0-0.33","1154.1000000238419","","","stimuli/Set_1_rs/091a.jpg","67","","indoor","SR","","","","","","","","","","","","","",""
"image-keyboard-response","55","216093","0.0-2.0-6.0-0.34","1259.6000000238419","","","stimuli/Set_1_rs/147a.jpg","77","","outdoor","SR","","","","","","","","","","","","","",""
"image-keyboard-response","56","218595","0.0-2.0-6.0-0.35","853.8999999761581","","","stimuli/Set_1_rs/063a.jpg","67","","indoor","SR","","","","","","","","","","","","","",""
"image-keyboard-response","57","221097","0.0-2.0-6.0-0.36","1151.8000000715256","","","stimuli/Set_1_rs/040a.jpg","77","","outdoor","SR","","","","","","","","","","","","","",""
"image-keyboard-response","58","223598","0.0-2.0-6.0-0.37","986.1000000238419","","","stimuli/Set_1_rs/038a.jpg","67","","indoor","SR","","","","","","","","","","","","","",""
"image-keyboard-response","59","226100","0.0-2.0-6.0-0.38","1684.7000000476837","","","stimuli/Set_1_rs/100a.jpg","67","","indoor","SL","","","","","","","","","","","","","",""
"image-keyboard-response","60","228601","0.0-2.0-6.0-0.39","1182.7999999523163","","","stimuli/Set_1_rs/109a.jpg","77","","outdoor","SR","","","","","","","","","","","","","",""
"image-keyboard-response","61","231103","0.0-2.0-6.0-0.40","1208.8000000715256","","","stimuli/Set_1_rs/191a.jpg","67","","indoor","SR","","","","","","","","","","","","","",""
"image-keyboard-response","62","233605","0.0-2.0-6.0-0.41","995.6000000238419","","","stimuli/Set_1_rs/061a.jpg","77","","outdoor","SL","","","","","","","","","","","","","",""
"image-keyboard-response","63","236107","0.0-2.0-6.0-0.42","1037.5","","","stimuli/Set_1_rs/162a.jpg","67","","indoor","SR","","","","","","","","","","","","","",""
"image-keyboard-response","64","238609","0.0-2.0-6.0-0.43","1239.2999999523163","","","stimuli/Set_1_rs/046a.jpg","67","","indoor","SR","","","","","","","","","","","","","",""
"image-keyboard-response","65","241111","0.0-2.0-6.0-0.44","945.1000000238419","","","stimuli/Set_1_rs/155a.jpg","77","","outdoor","SL","","","","","","","","","","","","","",""
"image-keyboard-response","66","243613","0.0-2.0-6.0-0.45","1083.1000000238419","","","stimuli/Set_1_rs/010a.jpg","67","","indoor","SR","","","","","","","","","","","","","",""
"image-keyboard-response","67","246114","0.0-2.0-6.0-0.46","1253.7000000476837","","","stimuli/Set_1_rs/142a.jpg","77","","outdoor","SR","","","","","","","","","","","","","",""
"image-keyboard-response","68","248616","0.0-2.0-6.0-0.47","1312.3000000715256","","","stimuli/Set_1_rs/045a.jpg","67","","indoor","SL","","","","","","","","","","","","","",""
"image-keyboard-response","69","251119","0.0-2.0-6.0-0.48","1065.6000000238419","","","stimuli/Set_1_rs/070a.jpg","77","","outdoor","SR","","","","","","","","","","","","","",""
"image-keyboard-response","70","253621","0.0-2.0-6.0-0.49","1155.3999999761581","","","stimuli/Set_1_rs/022a.jpg","77","","outdoor","SL","","","","","","","","","","","","","",""
"image-keyboard-response","71","256121","0.0-2.0-6.0-0.50","941.7999999523163","","","stimuli/Set_1_rs/021a.jpg","67","","indoor","SR","","","","","","","","","","","","","",""
"image-keyboard-response","72","258623","0.0-2.0-6.0-0.51","1240.2999999523163","","","stimuli/Set_1_rs/098a.jpg","77","","outdoor","SL","","","","","","","","","","","","","",""
"image-keyboard-response","73","261125","0.0-2.0-6.0-0.52","1041.7000000476837","","","stimuli/Set_1_rs/008a.jpg","67","","indoor","SL","","","","","","","","","","","","","",""
"image-keyboard-response","74","263628","0.0-2.0-6.0-0.53","1164.1999999284744","","","stimuli/Set_1_rs/012a.jpg","67","","indoor","SL","","","","","","","","","","","","","",""
"image-keyboard-response","75","266129","0.0-2.0-6.0-0.54","998","","","stimuli/Set_1_rs/153a.jpg","67","","indoor","SR","","","","","","","","","","","","","",""
"image-keyboard-response","76","268631","0.0-2.0-6.0-0.55","1056.1999999284744","","","stimuli/Set_1_rs/068a.jpg","67","","indoor","SL","","","","","","","","","","","","","",""
"image-keyboard-response","77","271133","0.0-2.0-6.0-0.56","1514.2999999523163","","","stimuli/Set_1_rs/140a.jpg","67","","indoor","SL","","","","","","","","","","","","","",""
"image-keyboard-response","78","273635","0.0-2.0-6.0-0.57","1796.3999999761581","","","stimuli/Set_1_rs/029a.jpg","77","","outdoor","SR","","","","","","","","","","","","","",""
"image-keyboard-response","79","276137","0.0-2.0-6.0-0.58","1838.3000000715256","","","stimuli/Set_1_rs/049a.jpg","77","","outdoor","SR","","","","","","","","","","","","","",""
"image-keyboard-response","80","278639","0.0-2.0-6.0-0.59","936","","","stimuli/Set_1_rs/180a.jpg","67","","indoor","SR","","","","","","","","","","","","","",""
"image-keyboard-response","81","281141","0.0-2.0-6.0-0.60","1089.9000000953674","","","stimuli/Set_1_rs/033a.jpg","67","","indoor","SL","","","","","","","","","","","","","",""
"image-keyboard-response","82","283642","0.0-2.0-6.0-0.61","1404.6000000238419","","","stimuli/Set_1_rs/119a.jpg","67","","indoor","SL","","","","","","","","","","","","","",""
"image-keyboard-response","83","286144","0.0-2.0-6.0-0.62","823.1000000238419","","","stimuli/Set_1_rs/118a.jpg","67","","indoor","SR","","","","","","","","","","","","","",""
"image-keyboard-response","84","288646","0.0-2.0-6.0-0.63","993.3000000715256","","","stimuli/Set_1_rs/107a.jpg","77","","outdoor","SR","","","","","","","","","","","","","",""
"html-keyboard-response","85","292771","0.0-2.0-7.0","4124","","","<p>Vége a feladat első részének. Tartson egy pár perces szünetet.</p>","32","","","","","","","","","","","","","","","","",""
"html-keyboard-response","86","346435","0.0-2.0-8.0-0.0","53663","","","<p>A következőkben ismét tárgyak jelennek majd meg a képernyőn, egymás után.<br>Az Ön feladata eldönteni, látta-e már ezeket a tárgyakat a vizsgálat első felében.</p>		        			<p>Amennyiben pontosan ugyanezt a tárgyat látta (a tárgy <i>régi</i>), nyomja le a <b>C</b> billentyűt.</p>		        			<p>Amennyiben hasonló tárgyat látott (a tárgy <i>hasonló</i>), nyomja le a <b>B</b> billentyűt.</p>		        			<p>Amennyiben nem látta ezt a tárgyat az első részben (a tárgy <i>új</i>), nyomja le az <b>M</b> billentyűt.</p>","32","","","","","","","","","","","","","","","","",""
"html-keyboard-response","87","348436","0.0-2.0-8.0-1.0","null","","","<p>Kezdődik a gyakorlás...</p>","null","","","","","","","","","","","","","","","","",""
"image-keyboard-response","88","352439","0.0-2.0-9.0-0.0","2267.2000000476837","","","stimuli/Set_2_rs/049b.jpg","66","","","TL","l","false","s","","","","","","","","","","",""
"html-keyboard-response","89","355234","0.0-2.0-9.0-1.0","2792.5","","","<p>A helyes válasz: Hasonló.</p><p>Az Ön válasza: Hasonló.</p>","32","","","","","","","","","","","","","","","","",""
"image-keyboard-response","90","359236","0.0-2.0-9.0-0.1","2462.3000000715256","","","stimuli/Set_2_rs/018b.jpg","77","","","TF","n","true","n","","","","","","","","","","",""
"html-keyboard-response","91","361793","0.0-2.0-9.0-1.1","2556","","","<p>A helyes válasz: Új.</p><p>Az Ön válasza: Új.</p>","32","","","","","","","","","","","","","","","","",""
"image-keyboard-response","92","365797","0.0-2.0-9.0-0.2","1949.8999999761581","","","stimuli/Set_2_rs/028a.jpg","67","","","TR","o","true","o","","","","","","","","","","",""
"html-keyboard-response","93","367714","0.0-2.0-9.0-1.2","1915.8000000715256","","","<p>A helyes válasz: Régi.</p><p>Az Ön válasza: Régi.</p>","32","","","","","","","","","","","","","","","","",""
"image-keyboard-response","94","371716","0.0-2.0-9.0-0.3","1566.2000000476837","","","stimuli/Set_2_rs/137a.jpg","67","","","TR","o","true","o","","","","","","","","","","",""
"html-keyboard-response","95","373121","0.0-2.0-9.0-1.3","1404.1000000238419","","","<p>A helyes válasz: Régi.</p><p>Az Ön válasza: Régi.</p>","32","","","","","","","","","","","","","","","","",""
"image-keyboard-response","96","377124","0.0-2.0-9.0-0.4","1517.8999999761581","","","stimuli/Set_2_rs/135b.jpg","67","","","TL","l","false","o","","","","","","","","","","",""
"html-keyboard-response","97","381009","0.0-2.0-9.0-1.4","3884.2999999523163","","","<p>A helyes válasz: Hasonló.</p><p>Az Ön válasza: Régi.</p>","32","","","","","","","","","","","","","","","","",""
"image-keyboard-response","98","385012","0.0-2.0-9.0-0.5","1645.4000000953674","","","stimuli/Set_2_rs/019a.jpg","77","","","TF","n","true","n","","","","","","","","","","",""
"html-keyboard-response","99","386801","0.0-2.0-9.0-1.5","1787.8999999761581","","","<p>A helyes válasz: Új.</p><p>Az Ön válasza: Új.</p>","32","","","","","","","","","","","","","","","","",""
"html-keyboard-response","100","409618","0.0-2.0-10.0-0.0","22815.299999952316","","","<p>Ez volt a gyakorlás. A feladat következik. A feladat alatt már nem kap visszajelzést.</p>","32","","","","","","","","","","","","","","","","",""
"html-keyboard-response","101","411620","0.0-2.0-10.0-1.0","null","","","<p>Kezdődik a feladat...</p>","null","","","","","","","","","","","","","","","","",""
"image-keyboard-response","102","416123","0.0-2.0-11.0-0.0","2347.6999999284744","","","stimuli/Set_1_rs/181a.jpg","66","","","TF","n","false","s","","","","","","","","","","",""
"image-keyboard-response","103","420626","0.0-2.0-11.0-0.1","1779.7999999523163","","","stimuli/Set_1_rs/152a.jpg","77","","","TF","n","true","n","","","","","","","","","","",""
"image-keyboard-response","104","425129","0.0-2.0-11.0-0.2","1932.8999999761581","","","stimuli/Set_1_rs/090b.jpg","66","","","TL","s","true","s","","","","","","","","","","",""
"image-keyboard-response","105","429632","0.0-2.0-11.0-0.3","1398","","","stimuli/Set_1_rs/126a.jpg","77","","","TF","n","true","n","","","","","","","","","","",""
"image-keyboard-response","106","434135","0.0-2.0-11.0-0.4","1470.9000000953674","","","stimuli/Set_1_rs/068b.jpg","77","","","TL","s","false","n","","","","","","","","","","",""
"image-keyboard-response","107","438638","0.0-2.0-11.0-0.5","1383.8000000715256","","","stimuli/Set_1_rs/054a.jpg","67","","","TR","o","true","o","","","","","","","","","","",""
"image-keyboard-response","108","443141","0.0-2.0-11.0-0.6","2048.399999976158","","","stimuli/Set_1_rs/162a.jpg","66","","","TR","o","false","s","","","","","","","","","","",""
"image-keyboard-response","109","447643","0.0-2.0-11.0-0.7","1417.6000000238419","","","stimuli/Set_1_rs/019a.jpg","77","","","TF","n","true","n","","","","","","","","","","",""
"image-keyboard-response","110","452146","0.0-2.0-11.0-0.8","1971.3999999761581","","","stimuli/Set_1_rs/119b.jpg","66","","","TL","s","true","s","","","","","","","","","","",""
"image-keyboard-response","111","456650","0.0-2.0-11.0-0.9","1964","","","stimuli/Set_1_rs/052b.jpg","66","","","TL","s","true","s","","","","","","","","","","",""
"image-keyboard-response","112","461153","0.0-2.0-11.0-0.10","1300.6999999284744","","","stimuli/Set_1_rs/135a.jpg","77","","","TF","n","true","n","","","","","","","","","","",""
"image-keyboard-response","113","465656","0.0-2.0-11.0-0.11","1357.6999999284744","","","stimuli/Set_1_rs/004a.jpg","77","","","TF","n","true","n","","","","","","","","","","",""
"image-keyboard-response","114","470160","0.0-2.0-11.0-0.12","1286.2000000476837","","","stimuli/Set_1_rs/072a.jpg","77","","","TF","n","true","n","","","","","","","","","","",""
"image-keyboard-response","115","474662","0.0-2.0-11.0-0.13","1199","","","stimuli/Set_1_rs/028a.jpg","77","","","TF","n","true","n","","","","","","","","","","",""
"image-keyboard-response","116","479166","0.0-2.0-11.0-0.14","1864","","","stimuli/Set_1_rs/091a.jpg","67","","","TR","o","true","o","","","","","","","","","","",""
"image-keyboard-response","117","483669","0.0-2.0-11.0-0.15","1312.3999999761581","","","stimuli/Set_1_rs/108a.jpg","77","","","TF","n","true","n","","","","","","","","","","",""
"image-keyboard-response","118","488172","0.0-2.0-11.0-0.16","2233.5","","","stimuli/Set_1_rs/146a.jpg","67","","","TF","n","false","o","","","","","","","","","","",""
"image-keyboard-response","119","492675","0.0-2.0-11.0-0.17","1970.6000000238419","","","stimuli/Set_1_rs/013b.jpg","67","","","TL","s","false","o","","","","","","","","","","",""
"image-keyboard-response","120","497178","0.0-2.0-11.0-0.18","1963.2999999523163","","","stimuli/Set_1_rs/141a.jpg","77","","","TF","n","true","n","","","","","","","","","","",""
"image-keyboard-response","121","501680","0.0-2.0-11.0-0.19","1476.5","","","stimuli/Set_1_rs/156b.jpg","67","","","TL","s","false","o","","","","","","","","","","",""
"image-keyboard-response","122","506183","0.0-2.0-11.0-0.20","1262","","","stimuli/Set_1_rs/024a.jpg","67","","","TR","o","true","o","","","","","","","","","","",""
"image-keyboard-response","123","510686","0.0-2.0-11.0-0.21","1366.8999999761581","","","stimuli/Set_1_rs/046a.jpg","67","","","TR","o","true","o","","","","","","","","","","",""
"image-keyboard-response","124","515189","0.0-2.0-11.0-0.22","1200.1000000238419","","","stimuli/Set_1_rs/100b.jpg","67","","","TL","s","false","o","","","","","","","","","","",""
"image-keyboard-response","125","519692","0.0-2.0-11.0-0.23","1528.5","","","stimuli/Set_1_rs/080a.jpg","77","","","TF","n","true","n","","","","","","","","","","",""
"image-keyboard-response","126","524195","0.0-2.0-11.0-0.24","2033.7000000476837","","","stimuli/Set_1_rs/094b.jpg","66","","","TL","s","true","s","","","","","","","","","","",""
"image-keyboard-response","127","528698","0.0-2.0-11.0-0.25","1339.1000000238419","","","stimuli/Set_1_rs/190a.jpg","77","","","TF","n","true","n","","","","","","","","","","",""
"image-keyboard-response","128","533201","0.0-2.0-11.0-0.26","2228.1999999284744","","","stimuli/Set_1_rs/137a.jpg","67","","","TR","o","true","o","","","","","","","","","","",""
"image-keyboard-response","129","537704","0.0-2.0-11.0-0.27","1116.8999999761581","","","stimuli/Set_1_rs/180a.jpg","67","","","TR","o","true","o","","","","","","","","","","",""
"image-keyboard-response","130","542206","0.0-2.0-11.0-0.28","2325.8000000715256","","","stimuli/Set_1_rs/134b.jpg","66","","","TL","s","true","s","","","","","","","","","","",""
"image-keyboard-response","131","546709","0.0-2.0-11.0-0.29","1423.1999999284744","","","stimuli/Set_1_rs/088a.jpg","77","","","TF","n","true","n","","","","","","","","","","",""
"image-keyboard-response","132","551212","0.0-2.0-11.0-0.30","1176.5","","","stimuli/Set_1_rs/165a.jpg","77","","","TF","n","true","n","","","","","","","","","","",""
"image-keyboard-response","133","555714","0.0-2.0-11.0-0.31","1633.7000000476837","","","stimuli/Set_1_rs/075b.jpg","77","","","TL","s","false","n","","","","","","","","","","",""
"image-keyboard-response","134","560218","0.0-2.0-11.0-0.32","1531.1000000238419","","","stimuli/Set_1_rs/191a.jpg","67","","","TR","o","true","o","","","","","","","","","","",""
"image-keyboard-response","135","564723","0.0-2.0-11.0-0.33","1201.6999999284744","","","stimuli/Set_1_rs/112a.jpg","67","","","TR","o","true","o","","","","","","","","","","",""
"image-keyboard-response","136","569226","0.0-2.0-11.0-0.34","1274.3999999761581","","","stimuli/Set_1_rs/171a.jpg","77","","","TF","n","true","n","","","","","","","","","","",""
"image-keyboard-response","137","573729","0.0-2.0-11.0-0.35","1795.7000000476837","","","stimuli/Set_1_rs/021a.jpg","67","","","TR","o","true","o","","","","","","","","","","",""
"image-keyboard-response","138","578232","0.0-2.0-11.0-0.36","1324.3999999761581","","","stimuli/Set_1_rs/157a.jpg","67","","","TR","o","true","o","","","","","","","","","","",""
"image-keyboard-response","139","582735","0.0-2.0-11.0-0.37","1972.9000000953674","","","stimuli/Set_1_rs/059b.jpg","77","","","TL","s","false","n","","","","","","","","","","",""
"image-keyboard-response","140","587238","0.0-2.0-11.0-0.38","1806.1999999284744","","","stimuli/Set_1_rs/153a.jpg","66","","","TR","o","false","s","","","","","","","","","","",""
"image-keyboard-response","141","591740","0.0-2.0-11.0-0.39","1687.1000000238419","","","stimuli/Set_1_rs/002a.jpg","66","","","TF","n","false","s","","","","","","","","","","",""
"image-keyboard-response","142","596244","0.0-2.0-11.0-0.40","1504.3999999761581","","","stimuli/Set_1_rs/041a.jpg","66","","","TF","n","false","s","","","","","","","","","","",""
"image-keyboard-response","143","600747","0.0-2.0-11.0-0.41","1929.8000000715256","","","stimuli/Set_1_rs/012b.jpg","67","","","TL","s","false","o","","","","","","","","","","",""
"image-keyboard-response","144","605250","0.0-2.0-11.0-0.42","1666.2999999523163","","","stimuli/Set_1_rs/083b.jpg","67","","","TL","s","false","o","","","","","","","","","","",""
"image-keyboard-response","145","609753","0.0-2.0-11.0-0.43","2091.0999999046326","","","stimuli/Set_1_rs/051a.jpg","77","","","TF","n","true","n","","","","","","","","","","",""
"image-keyboard-response","146","614256","0.0-2.0-11.0-0.44","1780.1000000238419","","","stimuli/Set_1_rs/168a.jpg","77","","","TF","n","true","n","","","","","","","","","","",""
"image-keyboard-response","147","618759","0.0-2.0-11.0-0.45","1772.5999999046326","","","stimuli/Set_1_rs/155b.jpg","66","","","TL","s","true","s","","","","","","","","","","",""
"image-keyboard-response","148","623262","0.0-2.0-11.0-0.46","1685.6000000238419","","","stimuli/Set_1_rs/045b.jpg","67","","","TL","s","false","o","","","","","","","","","","",""
"image-keyboard-response","149","627765","0.0-2.0-11.0-0.47","2302.9000000953674","","","stimuli/Set_1_rs/031b.jpg","66","","","TL","s","true","s","","","","","","","","","","",""
"image-keyboard-response","150","632268","0.0-2.0-11.0-0.48","1879.3999999761581","","","stimuli/Set_1_rs/136a.jpg","66","","","TR","o","false","s","","","","","","","","","","",""
"image-keyboard-response","151","636771","0.0-2.0-11.0-0.49","1184.1000000238419","","","stimuli/Set_1_rs/053a.jpg","77","","","TF","n","true","n","","","","","","","","","","",""
"image-keyboard-response","152","641274","0.0-2.0-11.0-0.50","2249.7000000476837","","","stimuli/Set_1_rs/061b.jpg","66","","","TL","s","true","s","","","","","","","","","","",""
"image-keyboard-response","153","645777","0.0-2.0-11.0-0.51","1218.0999999046326","","","stimuli/Set_1_rs/062a.jpg","77","","","TF","n","true","n","","","","","","","","","","",""
"image-keyboard-response","154","650279","0.0-2.0-11.0-0.52","2171.7999999523163","","","stimuli/Set_1_rs/009a.jpg","67","","","TR","o","true","o","","","","","","","","","","",""
"image-keyboard-response","155","654782","0.0-2.0-11.0-0.53","1460.7999999523163","","","stimuli/Set_1_rs/099b.jpg","67","","","TL","s","false","o","","","","","","","","","","",""
"image-keyboard-response","156","659284","0.0-2.0-11.0-0.54","1373.3999999761581","","","stimuli/Set_1_rs/030a.jpg","67","","","TR","o","true","o","","","","","","","","","","",""
"image-keyboard-response","157","663787","0.0-2.0-11.0-0.55","1910.8000000715256","","","stimuli/Set_1_rs/029a.jpg","66","","","TR","o","false","s","","","","","","","","","","",""
"image-keyboard-response","158","668291","0.0-2.0-11.0-0.56","2015.9000000953674","","","stimuli/Set_1_rs/140b.jpg","66","","","TL","s","true","s","","","","","","","","","","",""
"image-keyboard-response","159","672794","0.0-2.0-11.0-0.57","1288.5","","","stimuli/Set_1_rs/182a.jpg","77","","","TF","n","true","n","","","","","","","","","","",""
"image-keyboard-response","160","677297","0.0-2.0-11.0-0.58","2386","","","stimuli/Set_1_rs/151a.jpg","77","","","TF","n","true","n","","","","","","","","","","",""
"image-keyboard-response","161","681800","0.0-2.0-11.0-0.59","2442.399999976158","","","stimuli/Set_1_rs/142a.jpg","66","","","TR","o","false","s","","","","","","","","","","",""
"image-keyboard-response","162","686303","0.0-2.0-11.0-0.60","1395.1000000238419","","","stimuli/Set_1_rs/070a.jpg","67","","","TR","o","true","o","","","","","","","","","","",""
"image-keyboard-response","163","690807","0.0-2.0-11.0-0.61","1259.6999999284744","","","stimuli/Set_1_rs/121a.jpg","77","","","TF","n","true","n","","","","","","","","","","",""
"image-keyboard-response","164","695311","0.0-2.0-11.0-0.62","2692.5","","","stimuli/Set_1_rs/008b.jpg","66","","","TL","s","true","s","","","","","","","","","","",""
"image-keyboard-response","165","699813","0.0-2.0-11.0-0.63","2172.2000000476837","","","stimuli/Set_1_rs/092b.jpg","66","","","TL","s","true","s","","","","","","","","","","",""
"image-keyboard-response","166","704316","0.0-2.0-11.0-0.64","1253.3999999761581","","","stimuli/Set_1_rs/192a.jpg","67","","","TR","o","true","o","","","","","","","","","","",""
"image-keyboard-response","167","708820","0.0-2.0-11.0-0.65","1438.3000000715256","","","stimuli/Set_1_rs/147a.jpg","77","","","TR","o","false","n","","","","","","","","","","",""
"image-keyboard-response","168","713323","0.0-2.0-11.0-0.66","1334.8999999761581","","","stimuli/Set_1_rs/032a.jpg","77","","","TF","n","true","n","","","","","","","","","","",""
"image-keyboard-response","169","717827","0.0-2.0-11.0-0.67","1327.1000000238419","","","stimuli/Set_1_rs/128b.jpg","67","","","TL","s","false","o","","","","","","","","","","",""
"image-keyboard-response","170","722331","0.0-2.0-11.0-0.68","2247.2999999523163","","","stimuli/Set_1_rs/186a.jpg","77","","","TF","n","true","n","","","","","","","","","","",""
"image-keyboard-response","171","726834","0.0-2.0-11.0-0.69","1440.1000000238419","","","stimuli/Set_1_rs/109a.jpg","67","","","TR","o","true","o","","","","","","","","","","",""
"image-keyboard-response","172","731337","0.0-2.0-11.0-0.70","1737.3999999761581","","","stimuli/Set_1_rs/160a.jpg","77","","","TF","n","true","n","","","","","","","","","","",""
"image-keyboard-response","173","735840","0.0-2.0-11.0-0.71","2226.1999999284744","","","stimuli/Set_1_rs/086a.jpg","66","","","TR","o","false","s","","","","","","","","","","",""
"image-keyboard-response","174","740343","0.0-2.0-11.0-0.72","1739.3000000715256","","","stimuli/Set_1_rs/023b.jpg","66","","","TL","s","true","s","","","","","","","","","","",""
"image-keyboard-response","175","744847","0.0-2.0-11.0-0.73","2452.2000000476837","","","stimuli/Set_1_rs/114b.jpg","66","","","TL","s","true","s","","","","","","","","","","",""
"image-keyboard-response","176","749350","0.0-2.0-11.0-0.74","1532.1000000238419","","","stimuli/Set_1_rs/033b.jpg","66","","","TL","s","true","s","","","","","","","","","","",""
"image-keyboard-response","177","753853","0.0-2.0-11.0-0.75","1413.1000000238419","","","stimuli/Set_1_rs/010a.jpg","67","","","TR","o","true","o","","","","","","","","","","",""
"image-keyboard-response","178","758357","0.0-2.0-11.0-0.76","1133.7999999523163","","","stimuli/Set_1_rs/150a.jpg","67","","","TR","o","true","o","","","","","","","","","","",""
"image-keyboard-response","179","762860","0.0-2.0-11.0-0.77","1957.7000000476837","","","stimuli/Set_1_rs/038a.jpg","66","","","TR","o","false","s","","","","","","","","","","",""
"image-keyboard-response","180","767363","0.0-2.0-11.0-0.78","2382.1999999284744","","","stimuli/Set_1_rs/022b.jpg","67","","","TL","s","false","o","","","","","","","","","","",""
"image-keyboard-response","181","771867","0.0-2.0-11.0-0.79","1463","","","stimuli/Set_1_rs/018a.jpg","77","","","TF","n","true","n","","","","","","","","","","",""
"image-keyboard-response","182","776369","0.0-2.0-11.0-0.80","1264","","","stimuli/Set_1_rs/081a.jpg","77","","","TF","n","true","n","","","","","","","","","","",""
"image-keyboard-response","183","780872","0.0-2.0-11.0-0.81","1417.1000000238419","","","stimuli/Set_1_rs/107a.jpg","67","","","TR","o","true","o","","","","","","","","","","",""
"image-keyboard-response","184","785376","0.0-2.0-11.0-0.82","1074.3999999761581","","","stimuli/Set_1_rs/101b.jpg","67","","","TL","s","false","o","","","","","","","","","","",""
"image-keyboard-response","185","789879","0.0-2.0-11.0-0.83","1994.3000000715256","","","stimuli/Set_1_rs/178b.jpg","67","","","TL","s","false","o","","","","","","","","","","",""
"image-keyboard-response","186","794382","0.0-2.0-11.0-0.84","2451.1999999284744","","","stimuli/Set_1_rs/103b.jpg","67","","","TL","s","false","o","","","","","","","","","","",""
"image-keyboard-response","187","798886","0.0-2.0-11.0-0.85","2971.6999999284744","","","stimuli/Set_1_rs/116b.jpg","66","","","TL","s","true","s","","","","","","","","","","",""
"image-keyboard-response","188","803388","0.0-2.0-11.0-0.86","1348.5","","","stimuli/Set_1_rs/122a.jpg","77","","","TF","n","true","n","","","","","","","","","","",""
"image-keyboard-response","189","807892","0.0-2.0-11.0-0.87","1997.5","","","stimuli/Set_1_rs/044a.jpg","67","","","TR","o","true","o","","","","","","","","","","",""
"image-keyboard-response","190","812395","0.0-2.0-11.0-0.88","1142.6999999284744","","","stimuli/Set_1_rs/049a.jpg","67","","","TR","o","true","o","","","","","","","","","","",""
"image-keyboard-response","191","816898","0.0-2.0-11.0-0.89","895.2999999523163","","","stimuli/Set_1_rs/118a.jpg","67","","","TR","o","true","o","","","","","","","","","","",""
"image-keyboard-response","192","821401","0.0-2.0-11.0-0.90","1368.1000000238419","","","stimuli/Set_1_rs/040a.jpg","67","","","TR","o","true","o","","","","","","","","","","",""
"image-keyboard-response","193","825904","0.0-2.0-11.0-0.91","1969","","","stimuli/Set_1_rs/011b.jpg","67","","","TL","s","false","o","","","","","","","","","","",""
"image-keyboard-response","194","830406","0.0-2.0-11.0-0.92","1834","","","stimuli/Set_1_rs/087a.jpg","77","","","TF","n","true","n","","","","","","","","","","",""
"image-keyboard-response","195","834909","0.0-2.0-11.0-0.93","1219.6999999284744","","","stimuli/Set_1_rs/063a.jpg","67","","","TR","o","true","o","","","","","","","","","","",""
"image-keyboard-response","196","839412","0.0-2.0-11.0-0.94","1276.6000000238419","","","stimuli/Set_1_rs/098b.jpg","67","","","TL","s","false","o","","","","","","","","","","",""
"image-keyboard-response","197","843915","0.0-2.0-11.0-0.95","1845","","","stimuli/Set_1_rs/058a.jpg","67","","","TR","o","true","o","","","","","","","","","","",""
"html-keyboard-response","198","851740","0.0-3.0","7822.800000071526","","","<p>Vége a feladatnak. Köszönjük a részvételt!</p>","32","","","","","","","26","7","1","15","16","3","1","3","30","0.7352941176470588","0.38235294117647056"
