itemno,wordA,wordB,enc_gyak.thisRepN,enc_gyak.thisTrialN,enc_gyak.thisN,enc_gyak.thisIndex,rec_gyak.thisRepN,rec_gyak.thisTrialN,rec_gyak.thisN,rec_gyak.thisIndex,enc_repeat.thisRepN,enc_repeat.thisTrialN,enc_repeat.thisN,enc_repeat.thisIndex,enc_loop.thisRepN,enc_loop.thisTrialN,enc_loop.thisN,enc_loop.thisIndex,test_loop.thisRepN,test_loop.thisTrialN,test_loop.thisN,test_loop.thisIndex,int.started,int.stopped,int_key.keys,int_key.rt,int_key.started,int_key.stopped,prepare_gyak_text.started,prepare_gyak_text.stopped,fix.started,fix.stopped,word1.started,word1.stopped,word2.started,word2.stopped,gykrec_inst.started,gykrec_inst.stopped,gyakrec_inst.keys,gyakrec_inst.rt,gyakrec_inst.started,gyakrec_inst.stopped,cueword,cueword1.started,cueword1.stopped,cue_resp.keys,cue_resp.rt,cue_resp.started,cue_resp.stopped,cue_cont_text.started,cue_cont_text.stopped,cue_space.started,cue_space.stopped,test_ansbox.text,test_ansbox.started,test_ansbox.stopped,ans_text.started,ans_text.stopped,ans_continue.keys,ans_continue.rt,ans_continue.started,ans_continue.stopped,main_prep.started,main_prep.stopped,main_prep_resp.keys,main_prep_resp.rt,main_prep_resp.started,main_prep_resp.stopped,preparation.started,preparation.stopped,rep_routine.keys,rep_routine.rt,rep_routine.started,rep_routine.stopped,encrep_textbox.started,encrep_textbox.stopped,break_text.started,break_text.stopped,key_resp.keys,key_resp.rt,key_resp.started,key_resp.stopped,test_instruction.started,test_instruction.stopped,test_i_key.keys,test_i_key.rt,test_i_key.started,test_i_key.stopped,end_text.started,end_text.stopped,Résztvevő kódja,date,expName,psychopyVersion,frameRate,
,,,,,,,,,,,,,,,,,,,,,,,15.859238108620048,None,4,49.547067425679415,15.859238108620048,None,,,,,,,,,,,,,,,,,,,,,,,,,,,,,,,,,,,,,,,,,,,,,,,,,,,,,,,,,,,,,,,450749,2022_Mar_24_1521,palt,2021.1.2,59.655613894081895,
2,lepke,szintetizátor,0,0,0,1,,,,,,,,,,,,,,,,,,,,,,,65.4342096671462,None,68.45795875182375,None,69.46814483962953,None,69.46814483962953,None,,,,,,,,,,,,,,,,,,,,,,,,,,,,,,,,,,,,,,,,,,,,,,,,,,,,,,,450749,2022_Mar_24_1521,palt,2021.1.2,59.655613894081895,
1,sapka,beton,0,1,1,0,,,,,,,,,,,,,,,,,,,,,,,,,75.43901907280087,None,76.45824861014262,None,76.45824861014262,None,,,,,,,,,,,,,,,,,,,,,,,,,,,,,,,,,,,,,,,,,,,,,,,,,,,,,,,450749,2022_Mar_24_1521,palt,2021.1.2,59.655613894081895,
3,majoránna,szikla,0,2,2,2,,,,,,,,,,,,,,,,,,,,,,,,,82.44257356738672,None,83.45373745961115,None,83.45373745961115,None,,,,,,,,,,,,,,,,,,,,,,,,,,,,,,,,,,,,,,,,,,,,,,,,,,,,,,,450749,2022_Mar_24_1521,palt,2021.1.2,59.655613894081895,
4,kard,harcsa,0,3,3,3,,,,,,,,,,,,,,,,,,,,,,,,,89.44205978419632,None,90.45790961291641,None,90.45790961291641,None,,,,,,,,,,,,,,,,,,,,,,,,,,,,,,,,,,,,,,,,,,,,,,,,,,,,,,,450749,2022_Mar_24_1521,palt,2021.1.2,59.655613894081895,
,,,,,,,,,,,,,,,,,,,,,,,,,,,,,,,,,,,,,96.43987869517878,None,4,6.927325536031276,96.43987869517878,None,,,,,,,,,,,,,,,,,,,,,,,,,,,,,,,,,,,,,,,,,,,,,,,,,450749,2022_Mar_24_1521,palt,2021.1.2,59.655613894081895,
3,majoránna,szikla,,,,,0,0,0,2,,,,,,,,,,,,,,,,,,,,,103.42079564230517,None,,,,,,,,,,,szikla,104.42138375574723,None,4,4.844441659282893,104.42138375574723,None,104.42138375574723,None,104.42138375574723,None, beton,109.31002411572263,None,109.31002411572263,None,return,3.289875864982605,109.31002411572263,None,,,,,,,,,,,,,,,,,,,,,,,,,,,,,450749,2022_Mar_24_1521,palt,2021.1.2,59.655613894081895,
4,kard,harcsa,,,,,0,1,1,3,,,,,,,,,,,,,,,,,,,,,112.6414025654085,None,,,,,,,,,,,harcsa,113.65103786019608,None,4,3.705716860946268,113.65103786019608,None,113.65103786019608,None,113.65103786019608,None," 
kard",117.3918906901963,None,117.3918906901963,None,return,2.423868387006223,117.3918906901963,None,,,,,,,,,,,,,,,,,,,,,,,,,,,,,450749,2022_Mar_24_1521,palt,2021.1.2,59.655613894081895,
1,sapka,beton,,,,,0,2,2,0,,,,,,,,,,,,,,,,,,,,,119.84585767239332,None,,,,,,,,,,,sapka,120.87459685793146,None,4,4.838015018962324,120.87459685793146,None,120.87459685793146,None,120.87459685793146,None," 
",125.75900597358122,None,125.75900597358122,None,return,1.384861007798463,125.75900597358122,None,,,,,,,,,,,,,,,,,,,,,,,,,,,,,450749,2022_Mar_24_1521,palt,2021.1.2,59.655613894081895,
2,lepke,szintetizátor,,,,,0,3,3,1,,,,,,,,,,,,,,,,,,,,,127.1818334213458,None,,,,,,,,,,,lepke,128.2078015380539,None,4,5.047716807574034,128.2078015380539,None,128.2078015380539,None,128.2078015380539,None," 

",133.30205394979566,None,133.30205394979566,None,return,1.4255705261602998,133.30205394979566,None,,,,,,,,,,,,,,,,,,,,,,,,,,,,,450749,2022_Mar_24_1521,palt,2021.1.2,59.655613894081895,
,,,,,,,,,,,,,,,,,,,,,,,,,,,,,,,,,,,,,,,,,,,,,,,,,,,,,,,,,,,,,,,134.76502581685781,None,4,16.697275209240615,134.76502581685781,None,,,,,,,,,,,,,,,,,,,,,,,450749,2022_Mar_24_1521,palt,2021.1.2,59.655613894081895,
3,hárfa,elefánt,,,,,,,,,0,0,0,0,0,0,0,2,,,,,,,,,,,,,155.51207420881838,None,156.50942692067474,None,156.50942692067474,None,,,,,,,,,,,,,,,,,,,,,,,,,,,,,,,,,151.4897713046521,None,,,,,,,,,,,,,,,,,,,,,450749,2022_Mar_24_1521,palt,2021.1.2,59.655613894081895,
12,koktél,tolltartó,,,,,,,,,0,0,0,0,0,1,1,11,,,,,,,,,,,,,162.49021946499124,None,163.50943562900648,None,163.50943562900648,None,,,,,,,,,,,,,,,,,,,,,,,,,,,,,,,,,,,,,,,,,,,,,,,,,,,,,,,450749,2022_Mar_24_1521,palt,2021.1.2,59.655613894081895,
9,csavarhúzó,hering,,,,,,,,,0,0,0,0,0,2,2,8,,,,,,,,,,,,,169.48955080099404,None,170.51606691163033,None,170.51606691163033,None,,,,,,,,,,,,,,,,,,,,,,,,,,,,,,,,,,,,,,,,,,,,,,,,,,,,,,,450749,2022_Mar_24_1521,palt,2021.1.2,59.655613894081895,
2,kötény,tisztás,,,,,,,,,0,0,0,0,0,3,3,1,,,,,,,,,,,,,176.4895912320353,None,177.501687833108,None,177.501687833108,None,,,,,,,,,,,,,,,,,,,,,,,,,,,,,,,,,,,,,,,,,,,,,,,,,,,,,,,450749,2022_Mar_24_1521,palt,2021.1.2,59.655613894081895,
15,málna,dominó,,,,,,,,,0,0,0,0,0,4,4,14,,,,,,,,,,,,,183.48952996358275,None,184.51272452343255,None,184.51272452343255,None,,,,,,,,,,,,,,,,,,,,,,,,,,,,,,,,,,,,,,,,,,,,,,,,,,,,,,,450749,2022_Mar_24_1521,palt,2021.1.2,59.655613894081895,
4,fogó,limonádé,,,,,,,,,0,0,0,0,0,5,5,3,,,,,,,,,,,,,190.48785519320518,None,191.5076610255055,None,191.5076610255055,None,,,,,,,,,,,,,,,,,,,,,,,,,,,,,,,,,,,,,,,,,,,,,,,,,,,,,,,450749,2022_Mar_24_1521,palt,2021.1.2,59.655613894081895,
7,menta,triatlon,,,,,,,,,0,0,0,0,0,6,6,6,,,,,,,,,,,,,197.48854438355193,None,198.49509729258716,None,198.49509729258716,None,,,,,,,,,,,,,,,,,,,,,,,,,,,,,,,,,,,,,,,,,,,,,,,,,,,,,,,450749,2022_Mar_24_1521,palt,2021.1.2,59.655613894081895,
11,szilva,kecske,,,,,,,,,0,0,0,0,0,7,7,10,,,,,,,,,,,,,204.4889906779863,None,205.5045310552232,None,205.5045310552232,None,,,,,,,,,,,,,,,,,,,,,,,,,,,,,,,,,,,,,,,,,,,,,,,,,,,,,,,450749,2022_Mar_24_1521,palt,2021.1.2,59.655613894081895,
14,lándzsa,fénymásoló,,,,,,,,,0,0,0,0,0,8,8,13,,,,,,,,,,,,,211.50409688986838,None,212.49824934406206,None,212.49824934406206,None,,,,,,,,,,,,,,,,,,,,,,,,,,,,,,,,,,,,,,,,,,,,,,,,,,,,,,,450749,2022_Mar_24_1521,palt,2021.1.2,59.655613894081895,
13,tenisz,pizsama,,,,,,,,,0,0,0,0,0,9,9,12,,,,,,,,,,,,,218.4912016238086,None,219.51615928020328,None,219.51615928020328,None,,,,,,,,,,,,,,,,,,,,,,,,,,,,,,,,,,,,,,,,,,,,,,,,,,,,,,,450749,2022_Mar_24_1521,palt,2021.1.2,59.655613894081895,
5,mocsár,ananász,,,,,,,,,0,0,0,0,0,10,10,4,,,,,,,,,,,,,225.4909864072688,None,226.51760919298977,None,226.51760919298977,None,,,,,,,,,,,,,,,,,,,,,,,,,,,,,,,,,,,,,,,,,,,,,,,,,,,,,,,450749,2022_Mar_24_1521,palt,2021.1.2,59.655613894081895,
10,szalvéta,puska,,,,,,,,,0,0,0,0,0,11,11,9,,,,,,,,,,,,,232.4995928928256,None,233.5183571637608,None,233.5183571637608,None,,,,,,,,,,,,,,,,,,,,,,,,,,,,,,,,,,,,,,,,,,,,,,,,,,,,,,,450749,2022_Mar_24_1521,palt,2021.1.2,59.655613894081895,
8,pelikán,kakaó,,,,,,,,,0,0,0,0,0,12,12,7,,,,,,,,,,,,,239.4906455441378,None,240.51636672159657,None,240.51636672159657,None,,,,,,,,,,,,,,,,,,,,,,,,,,,,,,,,,,,,,,,,,,,,,,,,,,,,,,,450749,2022_Mar_24_1521,palt,2021.1.2,59.655613894081895,
6,karton,hentes,,,,,,,,,0,0,0,0,0,13,13,5,,,,,,,,,,,,,246.48931661294773,None,247.51817522523925,None,247.51817522523925,None,,,,,,,,,,,,,,,,,,,,,,,,,,,,,,,,,,,,,,,,,,,,,,,,,,,,,,,450749,2022_Mar_24_1521,palt,2021.1.2,59.655613894081895,
1,bagoly,kirakó,,,,,,,,,0,0,0,0,0,14,14,0,,,,,,,,,,,,,253.49040793534368,None,254.51748230261728,None,254.51748230261728,None,,,,,,,,,,,,,,,,,,,,,,,,,,,,,,,,,,,,,,,,,,,,,,,,,,,,,,,450749,2022_Mar_24_1521,palt,2021.1.2,59.655613894081895,
,,,,,,,,,,,0,0,0,0,,,,,,,,,,,,,,,,,,,,,,,,,,,,,,,,,,,,,,,,,,,,,,,,,,,,,,,,,4,13.23441592650488,260.54683323809877,None,260.54683323809877,None,,,,,,,,,,,,,,,450749,2022_Mar_24_1521,palt,2021.1.2,59.655613894081895,
1,bagoly,kirakó,,,,,,,,,1,0,1,0,0,0,0,0,,,,,,,,,,,,,273.8379061669111,None,274.822454737965,None,274.822454737965,None,,,,,,,,,,,,,,,,,,,,,,,,,,,,,,,,,,,,,,,,,,,,,,,,,,,,,,,450749,2022_Mar_24_1521,palt,2021.1.2,59.655613894081895,
5,mocsár,ananász,,,,,,,,,1,0,1,0,0,1,1,4,,,,,,,,,,,,,280.822065979708,None,281.8284795572981,None,281.8284795572981,None,,,,,,,,,,,,,,,,,,,,,,,,,,,,,,,,,,,,,,,,,,,,,,,,,,,,,,,450749,2022_Mar_24_1521,palt,2021.1.2,59.655613894081895,
14,lándzsa,fénymásoló,,,,,,,,,1,0,1,0,0,2,2,13,,,,,,,,,,,,,287.82419761875644,None,288.8364798906259,None,288.8364798906259,None,,,,,,,,,,,,,,,,,,,,,,,,,,,,,,,,,,,,,,,,,,,,,,,,,,,,,,,450749,2022_Mar_24_1521,palt,2021.1.2,59.655613894081895,
11,szilva,kecske,,,,,,,,,1,0,1,0,0,3,3,10,,,,,,,,,,,,,294.8241994846612,None,295.83707298059016,None,295.83707298059016,None,,,,,,,,,,,,,,,,,,,,,,,,,,,,,,,,,,,,,,,,,,,,,,,,,,,,,,,450749,2022_Mar_24_1521,palt,2021.1.2,59.655613894081895,
13,tenisz,pizsama,,,,,,,,,1,0,1,0,0,4,4,12,,,,,,,,,,,,,301.8167424798012,None,302.8346636123024,None,302.8346636123024,None,,,,,,,,,,,,,,,,,,,,,,,,,,,,,,,,,,,,,,,,,,,,,,,,,,,,,,,450749,2022_Mar_24_1521,palt,2021.1.2,59.655613894081895,
10,szalvéta,puska,,,,,,,,,1,0,1,0,0,5,5,9,,,,,,,,,,,,,308.8210766678676,None,309.83612378826365,None,309.83612378826365,None,,,,,,,,,,,,,,,,,,,,,,,,,,,,,,,,,,,,,,,,,,,,,,,,,,,,,,,450749,2022_Mar_24_1521,palt,2021.1.2,59.655613894081895,
4,fogó,limonádé,,,,,,,,,1,0,1,0,0,6,6,3,,,,,,,,,,,,,315.8201396050863,None,316.82938209874555,None,316.82938209874555,None,,,,,,,,,,,,,,,,,,,,,,,,,,,,,,,,,,,,,,,,,,,,,,,,,,,,,,,450749,2022_Mar_24_1521,palt,2021.1.2,59.655613894081895,
6,karton,hentes,,,,,,,,,1,0,1,0,0,7,7,5,,,,,,,,,,,,,322.82734438357875,None,323.83499887771904,None,323.83499887771904,None,,,,,,,,,,,,,,,,,,,,,,,,,,,,,,,,,,,,,,,,,,,,,,,,,,,,,,,450749,2022_Mar_24_1521,palt,2021.1.2,59.655613894081895,
9,csavarhúzó,hering,,,,,,,,,1,0,1,0,0,8,8,8,,,,,,,,,,,,,329.8194861798547,None,330.8382286806591,None,330.8382286806591,None,,,,,,,,,,,,,,,,,,,,,,,,,,,,,,,,,,,,,,,,,,,,,,,,,,,,,,,450749,2022_Mar_24_1521,palt,2021.1.2,59.655613894081895,
2,kötény,tisztás,,,,,,,,,1,0,1,0,0,9,9,1,,,,,,,,,,,,,336.82287148665637,None,337.835326989647,None,337.835326989647,None,,,,,,,,,,,,,,,,,,,,,,,,,,,,,,,,,,,,,,,,,,,,,,,,,,,,,,,450749,2022_Mar_24_1521,palt,2021.1.2,59.655613894081895,
12,koktél,tolltartó,,,,,,,,,1,0,1,0,0,10,10,11,,,,,,,,,,,,,343.82307799486443,None,344.84331146162003,None,344.84331146162003,None,,,,,,,,,,,,,,,,,,,,,,,,,,,,,,,,,,,,,,,,,,,,,,,,,,,,,,,450749,2022_Mar_24_1521,palt,2021.1.2,59.655613894081895,
3,hárfa,elefánt,,,,,,,,,1,0,1,0,0,11,11,2,,,,,,,,,,,,,350.8321649855934,None,351.8362388606183,None,351.8362388606183,None,,,,,,,,,,,,,,,,,,,,,,,,,,,,,,,,,,,,,,,,,,,,,,,,,,,,,,,450749,2022_Mar_24_1521,palt,2021.1.2,59.655613894081895,
8,pelikán,kakaó,,,,,,,,,1,0,1,0,0,12,12,7,,,,,,,,,,,,,357.8233588342555,None,358.8353344537318,None,358.8353344537318,None,,,,,,,,,,,,,,,,,,,,,,,,,,,,,,,,,,,,,,,,,,,,,,,,,,,,,,,450749,2022_Mar_24_1521,palt,2021.1.2,59.655613894081895,
15,málna,dominó,,,,,,,,,1,0,1,0,0,13,13,14,,,,,,,,,,,,,364.8212623386644,None,365.83950225263834,None,365.83950225263834,None,,,,,,,,,,,,,,,,,,,,,,,,,,,,,,,,,,,,,,,,,,,,,,,,,,,,,,,450749,2022_Mar_24_1521,palt,2021.1.2,59.655613894081895,
7,menta,triatlon,,,,,,,,,1,0,1,0,0,14,14,6,,,,,,,,,,,,,371.8207333162427,None,372.83315118728206,None,372.83315118728206,None,,,,,,,,,,,,,,,,,,,,,,,,,,,,,,,,,,,,,,,,,,,,,,,,,,,,,,,450749,2022_Mar_24_1521,palt,2021.1.2,59.655613894081895,
,,,,,,,,,,,1,0,1,0,,,,,,,,,,,,,,,,,,,,,,,,,,,,,,,,,,,,,,,,,,,,,,,,,,,,,,,,,4,10.731342559214681,378.83534129569307,None,378.83534129569307,None,,,,,,,,,,,,,,,450749,2022_Mar_24_1521,palt,2021.1.2,59.655613894081895,
,,,,,,,,,,,,,,,,,,,,,,,,,,,,,,,,,,,,,,,,,,,,,,,,,,,,,,,,,,,,,,,,,,,,,,,,,,,,,389.5939983194694,None,u,9.610523965209723,389.5939983194694,None,,,,,,,,,450749,2022_Mar_24_1521,palt,2021.1.2,59.655613894081895,
,,,,,,,,,,,,,,,,,,,,,,,,,,,,,,,,,,,,,,,,,,,,,,,,,,,,,,,,,,,,,,,,,,,,,,,,,,,,,,,,,,,399.24377038283274,None,4,9.802899576723576,399.24377038283274,None,,,450749,2022_Mar_24_1521,palt,2021.1.2,59.655613894081895,
2,kötény,tisztás,,,,,,,,,,,,,,,,,0,0,0,1,,,,,,,,,413.11053142976016,None,,,,,,,,,,,kötény,414.10074965050444,None,None,,414.10074965050444,None,414.10074965050444,None,414.10074965050444,None, tiszta,429.08402433851734,None,429.08402433851734,None,return,4.024112029932439,429.08402433851734,None,,,,,,,409.08238097978756,None,,,,,,,,,,,,,,,,,,,,,450749,2022_Mar_24_1521,palt,2021.1.2,59.655613894081895,
13,tenisz,pizsama,,,,,,,,,,,,,,,,,0,1,1,12,,,,,,,,,433.14336501667276,None,,,,,,,,,,,pizsama,434.1639446336776,None,None,,434.1639446336776,None,434.1639446336776,None,434.1639446336776,None," 

",449.1565193515271,None,449.1565193515271,None,return,3.7114695496857166,449.1565193515271,None,,,,,,,,,,,,,,,,,,,,,,,,,,,,,450749,2022_Mar_24_1521,palt,2021.1.2,59.655613894081895,
10,szalvéta,puska,,,,,,,,,,,,,,,,,0,2,2,9,,,,,,,,,452.9145904388279,None,,,,,,,,,,,szalvéta,453.94511822331697,None,4,7.111694593913853,453.94511822331697,None,453.94511822331697,None,453.94511822331697,None, ,461.0807522381656,None,461.0807522381656,None,return,1.083583952859044,461.0807522381656,None,,,,,,,,,,,,,,,,,,,,,,,,,,,,,450749,2022_Mar_24_1521,palt,2021.1.2,59.655613894081895,
1,bagoly,kirakó,,,,,,,,,,,,,,,,,0,3,3,0,,,,,,,,,462.1984738288447,None,,,,,,,,,,,bagoly,463.20882070669904,None,4,4.1612982782535255,463.20882070669904,None,463.20882070669904,None,463.20882070669904,None," 
",467.4073044876568,None,467.4073044876568,None,return,7.36434048274532,467.4073044876568,None,,,,,,,,,,,,,,,,,,,,,,,,,,,,,450749,2022_Mar_24_1521,palt,2021.1.2,59.655613894081895,
12,koktél,tolltartó,,,,,,,,,,,,,,,,,0,4,4,11,,,,,,,,,474.7958736270666,None,,,,,,,,,,,koktél,475.8164827893488,None,4,4.268194662872702,475.8164827893488,None,475.8164827893488,None,475.8164827893488,None," 
",480.1184502793476,None,480.1184502793476,None,return,1.3576479321345687,480.1184502793476,None,,,,,,,,,,,,,,,,,,,,,,,,,,,,,450749,2022_Mar_24_1521,palt,2021.1.2,59.655613894081895,
5,mocsár,ananász,,,,,,,,,,,,,,,,,0,5,5,4,,,,,,,,,481.5131624210626,None,,,,,,,,,,,ananász,482.53394388081506,None,4,3.582471793051809,482.53394388081506,None,482.53394388081506,None,482.53394388081506,None," 
",486.1546996519901,None,486.1546996519901,None,return,1.768977155443281,486.1546996519901,None,,,,,,,,,,,,,,,,,,,,,,,,,,,,,450749,2022_Mar_24_1521,palt,2021.1.2,59.655613894081895,
14,lándzsa,fénymásoló,,,,,,,,,,,,,,,,,0,6,6,13,,,,,,,,,487.9609633865766,None,,,,,,,,,,,fénymásoló,488.9794524172321,None,4,2.654197686817497,488.9794524172321,None,488.9794524172321,None,488.9794524172321,None," 
",491.6684259274043,None,491.6684259274043,None,return,1.3590524378232658,491.6684259274043,None,,,,,,,,,,,,,,,,,,,,,,,,,,,,,450749,2022_Mar_24_1521,palt,2021.1.2,59.655613894081895,
11,szilva,kecske,,,,,,,,,,,,,,,,,0,7,7,10,,,,,,,,,493.0504362490028,None,,,,,,,,,,,szilva,494.0628370149061,None,4,3.7106397841125727,494.0628370149061,None,494.0628370149061,None,494.0628370149061,None," 
",497.8059987574816,None,497.8059987574816,None,return,1.0137119693681598,497.8059987574816,None,,,,,,,,,,,,,,,,,,,,,,,,,,,,,450749,2022_Mar_24_1521,palt,2021.1.2,59.655613894081895,
9,csavarhúzó,hering,,,,,,,,,,,,,,,,,0,8,8,8,,,,,,,,,498.85398271959275,None,,,,,,,,,,,hering,499.87485934747383,None,4,5.89847065648064,499.87485934747383,None,499.87485934747383,None,499.87485934747383,None," 

",505.8156150812283,None,505.8156150812283,None,return,1.6115966271609068,505.8156150812283,None,,,,,,,,,,,,,,,,,,,,,,,,,,,,,450749,2022_Mar_24_1521,palt,2021.1.2,59.655613894081895,
6,karton,hentes,,,,,,,,,,,,,,,,,0,9,9,5,,,,,,,,,507.4696868103929,None,,,,,,,,,,,karton,508.48959558596835,None,4,2.9109084317460656,508.48959558596835,None,508.48959558596835,None,508.48959558596835,None," 
",511.4293775577098,None,511.4293775577098,None,return,1.5817515021190047,511.4293775577098,None,,,,,,,,,,,,,,,,,,,,,,,,,,,,,450749,2022_Mar_24_1521,palt,2021.1.2,59.655613894081895,
7,menta,triatlon,,,,,,,,,,,,,,,,,0,10,10,6,,,,,,,,,513.0530011206865,None,,,,,,,,,,,triatlon,514.0691591566429,None,4,3.187026919797063,514.0691591566429,None,514.0691591566429,None,514.0691591566429,None, ,517.2974062673748,None,517.2974062673748,None,return,1.1379320425912738,517.2974062673748,None,,,,,,,,,,,,,,,,,,,,,,,,,,,,,450749,2022_Mar_24_1521,palt,2021.1.2,59.655613894081895,
15,málna,dominó,,,,,,,,,,,,,,,,,0,11,11,14,,,,,,,,,518.4684172812849,None,,,,,,,,,,,málna,519.4783337265253,None,4,2.855143395718187,519.4783337265253,None,519.4783337265253,None,519.4783337265253,None," 
",522.3792697316967,None,522.3792697316967,None,return,1.2718875547870994,522.3792697316967,None,,,,,,,,,,,,,,,,,,,,,,,,,,,,,450749,2022_Mar_24_1521,palt,2021.1.2,59.655613894081895,
3,hárfa,elefánt,,,,,,,,,,,,,,,,,0,12,12,2,,,,,,,,,523.6833822340705,None,,,,,,,,,,,elefánt,524.6915019941516,None,4,2.8145980895496905,524.6915019941516,None,524.6915019941516,None,524.6915019941516,None," 

",527.5303486450575,None,527.5303486450575,None,return,1.08066640002653,527.5303486450575,None,,,,,,,,,,,,,,,,,,,,,,,,,,,,,450749,2022_Mar_24_1521,palt,2021.1.2,59.655613894081895,
8,pelikán,kakaó,,,,,,,,,,,,,,,,,0,13,13,7,,,,,,,,,528.6508907540701,None,,,,,,,,,,,kakaó,529.6688812412322,None,4,2.9641029979102314,529.6688812412322,None,529.6688812412322,None,529.6688812412322,None," 
",532.66091014212,None,532.66091014212,None,return,2.109969751443714,532.66091014212,None,,,,,,,,,,,,,,,,,,,,,,,,,,,,,450749,2022_Mar_24_1521,palt,2021.1.2,59.655613894081895,
4,fogó,limonádé,,,,,,,,,,,,,,,,,0,14,14,3,,,,,,,,,534.8096434436738,None,,,,,,,,,,,limonádé,535.8843910773285,None,4,4.966486552264541,535.8843910773285,None,535.8843910773285,None,535.8843910773285,None, ,540.8737555849366,None,540.8737555849366,None,return,1.3212399459443986,540.8737555849366,None,,,,,,,,,,,,,,,,,,,,,,,,,,,,,450749,2022_Mar_24_1521,palt,2021.1.2,59.655613894081895,
,,,,,,,,,,,,,,,,,,,,,,,,,,,,,,,,,,,,,,,,,,,,,,,,,,,,,,,,,,,,,,,,,,,,,,,,,,,,,,,,,,,,,,,,,542.2221149941906,None,,,,,,
