itemno,noun,adjective,stimtype,enc_practice_loop.thisRepN,enc_practice_loop.thisTrialN,enc_practice_loop.thisN,enc_practice_loop.thisIndex,break_loop.thisRepN,break_loop.thisTrialN,break_loop.thisN,break_loop.thisIndex,level_loop.thisRepN,level_loop.thisTrialN,level_loop.thisN,level_loop.thisIndex,test_pract_loop.thisRepN,test_pract_loop.thisTrialN,test_pract_loop.thisN,test_pract_loop.thisIndex,test_loop.thisRepN,test_loop.thisTrialN,test_loop.thisN,test_loop.thisIndex,exp_intro.started,exp_intro.stopped,exp_intro_cont.started,exp_intro_cont.stopped,exp_continue.keys,exp_continue.rt,exp_continue.started,exp_continue.stopped,enc_instr_text.started,enc_instr_text.stopped,enc_instr_cont_text.started,enc_instr_cont_text.stopped,enc_instr_cont_key.keys,enc_instr_cont_key.rt,enc_instr_cont_key.started,enc_instr_cont_key.stopped,newspaper.started,newspaper.stopped,editor.started,editor.stopped,enc_pract_start_text.started,enc_pract_start_text.stopped,key_resp_5.keys,key_resp_5.rt,key_resp_5.started,key_resp_5.stopped,enc_pract_endtext.started,enc_pract_endtext.stopped,enc_pract_cont_text.started,enc_pract_cont_text.stopped,end_enc_pract_key.keys,end_enc_pract_key.rt,end_enc_pract_key.started,end_enc_pract_key.stopped,instr_instr.started,instr_instr.stopped,instr_tovabb.keys,instr_tovabb.rt,instr_tovabb.started,instr_tovabb.stopped,sad_computer.started,sad_computer.stopped,warning.started,warning.stopped,break_text.started,break_text.stopped,break_cont_text.started,break_cont_text.stopped,szun2_resp.keys,szun2_resp.rt,szun2_resp.started,szun2_resp.stopped,test_instr_text.started,test_instr_text.stopped,test_instr_cont_text.started,test_instr_cont_text.stopped,test_instr_cont_key.keys,test_instr_cont_key.rt,test_instr_cont_key.started,test_instr_cont_key.stopped,news_coffee.started,news_coffee.stopped,editorman.started,editorman.stopped,test2_inst.started,test2_inst.stopped,test2_space.started,test2_space.stopped,test2_resp.keys,test2_resp.rt,test2_resp.started,test2_resp.stopped,test_pract_start_text.started,test_pract_start_text.stopped,test_pract_begin.keys,test_pract_begin.rt,test_pract_begin.started,test_pract_begin.stopped,fx_cross.started,fx_cross.stopped,megfelelő_v.started,megfelelő_v.stopped,nemmegf_v.started,nemmegf_v.stopped,test_pract_words.started,test_pract_words.stopped,test_pract_keys.keys,test_pract_keys.rt,test_pract_keys.started,test_pract_keys.stopped,régi_válasz.started,régi_válasz.stopped,uj_válasz.started,uj_válasz.stopped,konfidencia_kérdés.started,konfidencia_kérdés.stopped,confid_rate_keys.keys,confid_rate_keys.rt,confid_rate_keys.started,confid_rate_keys.stopped,test_pract_feedback_text.started,test_pract_feedback_text.stopped,test_pract_end_text.started,test_pract_end_text.stopped,test_pract_end_cont_text.started,test_pract_end_cont_text.stopped,test_pract_end_key.keys,test_pract_end_key.rt,test_pract_end_key.started,test_pract_end_key.stopped,test_end_text.started,test_end_text.stopped,end_exp_text.started,end_exp_text.stopped,key_resp_3.keys,key_resp_3.rt,key_resp_3.started,key_resp_3.stopped,Résztvevő kódja:,Lista száma:,date,expName,psychopyVersion,frameRate,
,,,,,,,,,,,,,,,,,,,,,,,,15.374651906080544,None,15.374651906080544,None,4,0.15317105408757925,25.332665706053376,None,,,,,,,,,,,,,,,,,,,,,,,,,,,,,,,,,,,,,,,,,,,,,,,,,,,,,,,,,,,,,,,,,,,,,,,,,,,,,,,,,,,,,,,,,,,,,,,,,,,,,,,,,,,,,,,880818,1,2022_Mar_16_1548,encoding_smst,2021.1.2,59.976870061628205,
,,,,,,,,,,,,,,,,,,,,,,,,,,,,,,,,25.51691564824432,None,25.51691564824432,None,4,0.2243564184755087,35.50724209938198,None,,,,,,,,,,,,,,,,,,,,,,,,,,,,,,,,,,,,,,,,,,,,,,,,,,,,,,,,,,,,,,,,,,,,,,,,,,,,,,,,,,,,,,,,,,,,,,,,,,,,,,,880818,1,2022_Mar_16_1548,encoding_smst,2021.1.2,59.976870061628205,
,,,,,,,,,,,,,,,,,,,,,,,,,,,,,,,,,,,,,,,,25.51691564824432,None,25.51691564824432,None,35.77426053537056,None,4,0.41734533477574587,35.77426053537056,None,,,,,,,,,,,,,,,,,,,,,,,,,,,,,,,,,,,,,,,,,,,,,,,,,,,,,,,,,,,,,,,,,,,,,,,,,,,,,,,,,,,,,,,,,,,,,880818,1,2022_Mar_16_1548,encoding_smst,2021.1.2,59.976870061628205,
,,,,,,,,,,,,,,,,,,,,,,,,,,,,,,,,,,,,,,,,,,,,,,,,,,36.241253095213324,None,36.241253095213324,None,4,0.18907178845256567,38.21260690083727,None,,,,,,,,,,,,,,,,,,,,,,,,,,,,,,,,,,,,,,,,,,,,,,,,,,,,,,,,,,,,,,,,,,,,,,,,,,,,,,,,,,,,,880818,1,2022_Mar_16_1548,encoding_smst,2021.1.2,59.976870061628205,
,,,,,,,,,,,,,,,,,,,,,,,,,,,,,,,,,,,,,,,,,,,,,,,,,,,,,,,,,,38.42849585413933,None,4,0.5280123632401228,38.42849585413933,None,,,,,,,,,,,,,,,,,,,,,,,,,,,,,,,,,,,,,,,,,,,,,,,,,,,,,,,,,,,,,,,,,,,,,,,,,,,,,,,880818,1,2022_Mar_16_1548,encoding_smst,2021.1.2,59.976870061628205,
,,,,,,,,,,,,,,,,,,,,,,,,,,,,,,,,,,,,,,,,,,,,,,,,,,,,,,,,,,,,,,,,38.42849585413933,None,38.42849585413933,None,38.99600543174893,None,48.98077792720869,None,4,0.42367369681596756,48.98077792720869,None,,,,,,,,,,,,,,,,,,,,,,,,,,,,,,,,,,,,,,,,,,,,,,,,,,,,,,,,,,,,,,,,,,,880818,1,2022_Mar_16_1548,encoding_smst,2021.1.2,59.976870061628205,
,,,,,,,,,,,,,,,,,,,,,,,,,,,,,,,,,,,,,,,,,,,,,,,,,,,,,,,,,,,,,,,,,,,,,,,,,,,,49.44529052078724,None,49.44529052078724,None,4,0.12626525247469544,59.409130407031626,None,,,,,,,,,,,,,,,,,,,,,,,,,,,,,,,,,,,,,,,,,,,,,,,,,,,,,,,,,,,880818,1,2022_Mar_16_1548,encoding_smst,2021.1.2,59.976870061628205,
,,,,,,,,,,,,,,,,,,,,,,,,,,,,,,,,,,,,,,,,,,,,,,,,,,,,,,,,,,,,,,,,,,,,,,,,,,,,,,,,,,,,49.44529052078724,None,49.44529052078724,None,59.571328427642584,None,59.571328427642584,None,4,3.1933117415755987,69.54589928500354,None,,,,,,,,,,,,,,,,,,,,,,,,,,,,,,,,,,,,,,,,,,,,,,,880818,1,2022_Mar_16_1548,encoding_smst,2021.1.2,59.976870061628205,
,,,,,,,,,,,,,,,,,,,,,,,,,,,,,,,,,,,,,,,,,,,,,,,,,,,,,,,,,,,,,,,,,,,,,,,,,,,,,,,,,,,,,,,,,,,,,,,,72.7643381813541,None,4,10.38098804326728,72.7643381813541,None,,,,,,,,,,,,,,,,,,,,,,,,,,,,,,,,,,,,,,,,,880818,1,2022_Mar_16_1548,encoding_smst,2021.1.2,59.976870061628205,
6,nézőtér,arányos,FOIL,,,,,,,,,,,,,0,0,0,5,,,,,,,,,,,,,,,,,,,,,,,,,,,,,,,,,,,,,,,,,,,,,,,,,,,,,,,,,,,,,,,,,,,,,,,,,,,,,,,,,,,83.19224996492267,None,83.19224996492267,None,83.19224996492267,None,84.19562252005562,None,2,1.8533227634616196,84.19562252005562,None,84.19562252005562,None,84.19562252005562,None,86.17313612205908,None,j,0.8379021235741675,86.17313612205908,None,89.21543581690639,None,,,,,,,,,,,,,,,,,880818,1,2022_Mar_16_1548,encoding_smst,2021.1.2,59.976870061628205,
2,csokoládé,szokványos,CLOSE,,,,,,,,,,,,,0,1,1,1,,,,,,,,,,,,,,,,,,,,,,,,,,,,,,,,,,,,,,,,,,,,,,,,,,,,,,,,,,,,,,,,,,,,,,,,,,,,,,,,,,,95.18648701300845,None,95.18648701300845,None,95.18648701300845,None,96.18836300447583,None,j,1.9404546790756285,96.18836300447583,None,96.18836300447583,None,96.18836300447583,None,98.17982805101201,None,None,,98.17982805101201,None,101.1850986792706,None,,,,,,,,,,,,,,,,,880818,1,2022_Mar_16_1548,encoding_smst,2021.1.2,59.976870061628205,
3,sivatag,délelőtti,DISTANT,,,,,,,,,,,,,0,2,2,2,,,,,,,,,,,,,,,,,,,,,,,,,,,,,,,,,,,,,,,,,,,,,,,,,,,,,,,,,,,,,,,,,,,,,,,,,,,,,,,,,,,107.18630538508296,None,107.18630538508296,None,107.18630538508296,None,108.18086463585496,None,None,,108.18086463585496,None,108.18086463585496,None,108.18086463585496,None,110.17048385785893,None,j,2.3982066116295755,110.17048385785893,None,113.1982085397467,None,,,,,,,,,,,,,,,,,880818,1,2022_Mar_16_1548,encoding_smst,2021.1.2,59.976870061628205,
4,taktika,hátrányos,FOIL,,,,,,,,,,,,,0,3,3,3,,,,,,,,,,,,,,,,,,,,,,,,,,,,,,,,,,,,,,,,,,,,,,,,,,,,,,,,,,,,,,,,,,,,,,,,,,,,,,,,,,,119.18335362151265,None,119.18335362151265,None,119.18335362151265,None,120.19830308575183,None,2,1.8623736766166985,120.19830308575183,None,120.19830308575183,None,120.19830308575183,None,122.17872180044651,None,j,2.613915491849184,122.17872180044651,None,125.19386595487595,None,,,,,,,,,,,,,,,,,880818,1,2022_Mar_16_1548,encoding_smst,2021.1.2,59.976870061628205,
1,színésznő,tevékeny,TARG,,,,,,,,,,,,,0,4,4,0,,,,,,,,,,,,,,,,,,,,,,,,,,,,,,,,,,,,,,,,,,,,,,,,,,,,,,,,,,,,,,,,,,,,,,,,,,,,,,,,,,,131.18887958629057,None,131.18887958629057,None,131.18887958629057,None,132.1924925497733,None,2,1.7081069462001324,132.1924925497733,None,132.1924925497733,None,132.1924925497733,None,134.18214318389073,None,j,0.7664586240425706,134.18214318389073,None,137.19761451752856,None,,,,,,,,,,,,,,,,,880818,1,2022_Mar_16_1548,encoding_smst,2021.1.2,59.976870061628205,
5,hadművelet,rivális,FOIL,,,,,,,,,,,,,0,5,5,4,,,,,,,,,,,,,,,,,,,,,,,,,,,,,,,,,,,,,,,,,,,,,,,,,,,,,,,,,,,,,,,,,,,,,,,,,,,,,,,,,,,143.18616729788482,None,143.18616729788482,None,143.18616729788482,None,144.20344153698534,None,2,1.576919081620872,144.20344153698534,None,144.20344153698534,None,144.20344153698534,None,146.17942778533325,None,j,0.6769325793720782,146.17942778533325,None,149.1932464297861,None,,,,,,,,,,,,,,,,,880818,1,2022_Mar_16_1548,encoding_smst,2021.1.2,59.976870061628205,
,,,,,,,,,,,,,,,,,,,,,,,,,,,,,,,,,,,,,,,,,,,,,,,,,,,,,,,,,,,,,,,,,,,,,,,,,,,,,,,,,,,,,,,,,,,,,,,,,,,,,,,,,,,,,,,,,,,,,,,,,,,,,,155.18141698325053,None,155.18141698325053,None,4,99.2298152060248,157.1544268988073,None,,,,,,,,,880818,1,2022_Mar_16_1548,encoding_smst,2021.1.2,59.976870061628205,
7,aszfalt,milliárdos,DISTANT,,,,,,,,,,,,,,,,,0,0,0,0,,,,,,,,,,,,,,,,,,,,,,,,,,,,,,,,,,,,,,,,,,,,,,,,,,,,,,,,,,,,,,,,,,,,,,,,,,,,,,,256.5153111652471,None,256.5153111652471,None,256.5153111652471,None,257.4253008835949,None,None,,257.4253008835949,None,257.4253008835949,None,257.4253008835949,None,259.41035981616005,None,j,1.4066168516874313,259.41035981616005,None,,,,,,,,,,,,,,,,,,,880818,1,2022_Mar_16_1548,encoding_smst,2021.1.2,59.976870061628205,
42,kirándulás,tegnapi,CLOSE,,,,,,,,,,,,,,,,,0,1,1,1,,,,,,,,,,,,,,,,,,,,,,,,,,,,,,,,,,,,,,,,,,,,,,,,,,,,,,,,,,,,,,,,,,,,,,,,,,,,,,,262.41420945571736,None,262.41420945571736,None,262.41420945571736,None,263.427653959021,None,None,,263.427653959021,None,263.427653959021,None,263.427653959021,None,265.42183004971594,None,4,1.4341555517166853,265.42183004971594,None,,,,,,,,,,,,,,,,,,,880818,1,2022_Mar_16_1548,encoding_smst,2021.1.2,59.976870061628205,
60,műanyag,felesleges,TARG,,,,,,,,,,,,,,,,,0,2,2,2,,,,,,,,,,,,,,,,,,,,,,,,,,,,,,,,,,,,,,,,,,,,,,,,,,,,,,,,,,,,,,,,,,,,,,,,,,,,,,,268.41397931054235,None,268.41397931054235,None,268.41397931054235,None,269.4238354205154,None,None,,269.4238354205154,None,269.4238354205154,None,269.4238354205154,None,271.40981617663056,None,4,1.7332953694276512,271.40981617663056,None,,,,,,,,,,,,,,,,,,,880818,1,2022_Mar_16_1548,encoding_smst,2021.1.2,59.976870061628205,
3,alkohol,karakteres,DISTANT,,,,,,,,,,,,,,,,,0,3,3,3,,,,,,,,,,,,,,,,,,,,,,,,,,,,,,,,,,,,,,,,,,,,,,,,,,,,,,,,,,,,,,,,,,,,,,,,,,,,,,,274.4120905678719,None,274.4120905678719,None,274.4120905678719,None,275.4319645105861,None,None,,275.4319645105861,None,275.4319645105861,None,275.4319645105861,None,277.42936729453504,None,4,1.4635052429512143,277.42936729453504,None,,,,,,,,,,,,,,,,,,,880818,1,2022_Mar_16_1548,encoding_smst,2021.1.2,59.976870061628205,
77,szakadék,iszonyatos,TARG,,,,,,,,,,,,,,,,,0,4,4,4,,,,,,,,,,,,,,,,,,,,,,,,,,,,,,,,,,,,,,,,,,,,,,,,,,,,,,,,,,,,,,,,,,,,,,,,,,,,,,,280.41588640306145,None,280.41588640306145,None,280.41588640306145,None,281.41934199724346,None,None,,281.41934199724346,None,281.41934199724346,None,281.41934199724346,None,283.4361528363079,None,4,0.8216725559905171,283.4361528363079,None,,,,,,,,,,,,,,,,,,,880818,1,2022_Mar_16_1548,encoding_smst,2021.1.2,59.976870061628205,
62,gyulladás,fájdalmas,FOIL,,,,,,,,,,,,,,,,,0,5,5,5,,,,,,,,,,,,,,,,,,,,,,,,,,,,,,,,,,,,,,,,,,,,,,,,,,,,,,,,,,,,,,,,,,,,,,,,,,,,,,,286.4177732798271,None,286.4177732798271,None,286.4177732798271,None,287.4277304667048,None,None,,287.4277304667048,None,287.4277304667048,None,287.4277304667048,None,289.4355631675571,None,j,1.5371758611872792,289.4355631675571,None,,,,,,,,,,,,,,,,,,,880818,1,2022_Mar_16_1548,encoding_smst,2021.1.2,59.976870061628205,
69,ösztöndíj,tanulmányi,TARG,,,,,,,,,,,,,,,,,0,6,6,6,,,,,,,,,,,,,,,,,,,,,,,,,,,,,,,,,,,,,,,,,,,,,,,,,,,,,,,,,,,,,,,,,,,,,,,,,,,,,,,292.41283978242427,None,292.41283978242427,None,292.41283978242427,None,293.4266276373528,None,2,1.823136464226991,293.4266276373528,None,293.4266276373528,None,293.4266276373528,None,295.42946184054017,None,j,1.7406108668074012,295.42946184054017,None,,,,,,,,,,,,,,,,,,,880818,1,2022_Mar_16_1548,encoding_smst,2021.1.2,59.976870061628205,
75,jutalom,kívánatos,FOIL,,,,,,,,,,,,,,,,,0,7,7,7,,,,,,,,,,,,,,,,,,,,,,,,,,,,,,,,,,,,,,,,,,,,,,,,,,,,,,,,,,,,,,,,,,,,,,,,,,,,,,,298.4154892475344,None,298.4154892475344,None,298.4154892475344,None,299.41862077312544,None,None,,299.41862077312544,None,299.41862077312544,None,299.41862077312544,None,301.42664971901104,None,j,1.7149826800450683,301.42664971901104,None,,,,,,,,,,,,,,,,,,,880818,1,2022_Mar_16_1548,encoding_smst,2021.1.2,59.976870061628205,
26,folyadék,optimális,CLOSE,,,,,,,,,,,,,,,,,0,8,8,8,,,,,,,,,,,,,,,,,,,,,,,,,,,,,,,,,,,,,,,,,,,,,,,,,,,,,,,,,,,,,,,,,,,,,,,,,,,,,,,304.4120616442524,None,304.4120616442524,None,304.4120616442524,None,305.42063391860574,None,None,,305.42063391860574,None,305.42063391860574,None,305.42063391860574,None,307.4246773151681,None,j,2.4128767922520638,307.4246773151681,None,,,,,,,,,,,,,,,,,,,880818,1,2022_Mar_16_1548,encoding_smst,2021.1.2,59.976870061628205,
43,kolbász,tetemes,CLOSE,,,,,,,,,,,,,,,,,0,9,9,9,,,,,,,,,,,,,,,,,,,,,,,,,,,,,,,,,,,,,,,,,,,,,,,,,,,,,,,,,,,,,,,,,,,,,,,,,,,,,,,310.4377535870299,None,310.4377535870299,None,310.4377535870299,None,311.4247982967645,None,None,,311.4247982967645,None,311.4247982967645,None,311.4247982967645,None,313.41124245291576,None,j,1.8551956452429295,313.41124245291576,None,,,,,,,,,,,,,,,,,,,880818,1,2022_Mar_16_1548,encoding_smst,2021.1.2,59.976870061628205,
83,találmány,forradalmi,TARG,,,,,,,,,,,,,,,,,0,10,10,10,,,,,,,,,,,,,,,,,,,,,,,,,,,,,,,,,,,,,,,,,,,,,,,,,,,,,,,,,,,,,,,,,,,,,,,,,,,,,,,316.4248763592914,None,316.4248763592914,None,316.4248763592914,None,317.4211514336057,None,None,,317.4211514336057,None,317.4211514336057,None,317.4211514336057,None,319.4295856212266,None,j,2.555974032264203,319.4295856212266,None,,,,,,,,,,,,,,,,,,,880818,1,2022_Mar_16_1548,encoding_smst,2021.1.2,59.976870061628205,
80,szerszám,trükkös,TARG,,,,,,,,,,,,,,,,,0,11,11,11,,,,,,,,,,,,,,,,,,,,,,,,,,,,,,,,,,,,,,,,,,,,,,,,,,,,,,,,,,,,,,,,,,,,,,,,,,,,,,,322.42315151682124,None,322.42315151682124,None,322.42315151682124,None,323.4273560149595,None,None,,323.4273560149595,None,323.4273560149595,None,323.4273560149595,None,325.4250604752451,None,j,2.3742186734452844,325.4250604752451,None,,,,,,,,,,,,,,,,,,,880818,1,2022_Mar_16_1548,encoding_smst,2021.1.2,59.976870061628205,
2,albérlet,munkaügyi,DISTANT,,,,,,,,,,,,,,,,,0,12,12,12,,,,,,,,,,,,,,,,,,,,,,,,,,,,,,,,,,,,,,,,,,,,,,,,,,,,,,,,,,,,,,,,,,,,,,,,,,,,,,,328.4118470493704,None,328.4118470493704,None,328.4118470493704,None,329.4218782559037,None,None,,329.4218782559037,None,329.4218782559037,None,329.4218782559037,None,331.41841115476564,None,4,2.4277251795865595,331.41841115476564,None,,,,,,,,,,,,,,,,,,,880818,1,2022_Mar_16_1548,encoding_smst,2021.1.2,59.976870061628205,
8,baktérium,egynapos,DISTANT,,,,,,,,,,,,,,,,,0,13,13,13,,,,,,,,,,,,,,,,,,,,,,,,,,,,,,,,,,,,,,,,,,,,,,,,,,,,,,,,,,,,,,,,,,,,,,,,,,,,,,,334.4190900819376,None,334.4190900819376,None,334.4190900819376,None,335.4211592087522,None,None,,335.4211592087522,None,335.4211592087522,None,335.4211592087522,None,337.4262740230188,None,4,1.129986446350813,337.4262740230188,None,,,,,,,,,,,,,,,,,,,880818,1,2022_Mar_16_1548,encoding_smst,2021.1.2,59.976870061628205,
93,útlezárás,helyszíni,TARG,,,,,,,,,,,,,,,,,0,14,14,14,,,,,,,,,,,,,,,,,,,,,,,,,,,,,,,,,,,,,,,,,,,,,,,,,,,,,,,,,,,,,,,,,,,,,,,,,,,,,,,340.41149498987943,None,340.41149498987943,None,340.41149498987943,None,341.42712151585147,None,None,,341.42712151585147,None,341.42712151585147,None,341.42712151585147,None,343.424773727078,None,j,2.7716891327872872,343.424773727078,None,,,,,,,,,,,,,,,,,,,880818,1,2022_Mar_16_1548,encoding_smst,2021.1.2,59.976870061628205,
64,napsütés,felhőtlen,TARG,,,,,,,,,,,,,,,,,0,15,15,15,,,,,,,,,,,,,,,,,,,,,,,,,,,,,,,,,,,,,,,,,,,,,,,,,,,,,,,,,,,,,,,,,,,,,,,,,,,,,,,346.41360859107226,None,346.41360859107226,None,346.41360859107226,None,347.42404659371823,None,None,,347.42404659371823,None,347.42404659371823,None,347.42404659371823,None,349.4174974174239,None,j,1.522588097024709,349.4174974174239,None,,,,,,,,,,,,,,,,,,,880818,1,2022_Mar_16_1548,encoding_smst,2021.1.2,59.976870061628205,
59,sorsolás,helytelen,FOIL,,,,,,,,,,,,,,,,,0,16,16,16,,,,,,,,,,,,,,,,,,,,,,,,,,,,,,,,,,,,,,,,,,,,,,,,,,,,,,,,,,,,,,,,,,,,,,,,,,,,,,,352.42101676762104,None,352.42101676762104,None,352.42101676762104,None,353.426997424569,None,2,1.85188031475991,353.426997424569,None,353.426997424569,None,353.426997424569,None,355.41824414394796,None,j,1.2078531649895012,355.41824414394796,None,,,,,,,,,,,,,,,,,,,880818,1,2022_Mar_16_1548,encoding_smst,2021.1.2,59.976870061628205,
86,távirat,udvarias,TARG,,,,,,,,,,,,,,,,,0,17,17,17,,,,,,,,,,,,,,,,,,,,,,,,,,,,,,,,,,,,,,,,,,,,,,,,,,,,,,,,,,,,,,,,,,,,,,,,,,,,,,,358.41897221049294,None,358.41897221049294,None,358.41897221049294,None,359.4239414734766,None,2,1.8110218243673444,359.4239414734766,None,359.4239414734766,None,359.4239414734766,None,361.4194595576264,None,j,1.300564228091389,361.4194595576264,None,,,,,,,,,,,,,,,,,,,880818,1,2022_Mar_16_1548,encoding_smst,2021.1.2,59.976870061628205,
55,menetrend,szokásos,TARG,,,,,,,,,,,,,,,,,0,18,18,18,,,,,,,,,,,,,,,,,,,,,,,,,,,,,,,,,,,,,,,,,,,,,,,,,,,,,,,,,,,,,,,,,,,,,,,,,,,,,,,364.4226831411943,None,364.4226831411943,None,364.4226831411943,None,365.4238223582506,None,2,1.923127880319953,365.4238223582506,None,365.4238223582506,None,365.4238223582506,None,367.4287984636612,None,j,1.9245177684351802,367.4287984636612,None,,,,,,,,,,,,,,,,,,,880818,1,2022_Mar_16_1548,encoding_smst,2021.1.2,59.976870061628205,
94,protokoll,sebészeti,FOIL,,,,,,,,,,,,,,,,,0,19,19,19,,,,,,,,,,,,,,,,,,,,,,,,,,,,,,,,,,,,,,,,,,,,,,,,,,,,,,,,,,,,,,,,,,,,,,,,,,,,,,,370.4174591633491,None,370.4174591633491,None,370.4174591633491,None,371.42013288708404,None,None,,371.42013288708404,None,371.42013288708404,None,371.42013288708404,None,373.4114514491521,None,j,1.7184323649853468,373.4114514491521,None,,,,,,,,,,,,,,,,,,,880818,1,2022_Mar_16_1548,encoding_smst,2021.1.2,59.976870061628205,
90,mozdulat,harmonikus,FOIL,,,,,,,,,,,,,,,,,0,20,20,20,,,,,,,,,,,,,,,,,,,,,,,,,,,,,,,,,,,,,,,,,,,,,,,,,,,,,,,,,,,,,,,,,,,,,,,,,,,,,,,376.4243946103379,None,376.4243946103379,None,376.4243946103379,None,377.4199633882381,None,None,,377.4199633882381,None,377.4199633882381,None,377.4199633882381,None,379.42387554002926,None,4,1.9918205267749727,379.42387554002926,None,,,,,,,,,,,,,,,,,,,880818,1,2022_Mar_16_1548,encoding_smst,2021.1.2,59.976870061628205,
88,tévéműsor,közéleti,TARG,,,,,,,,,,,,,,,,,0,21,21,21,,,,,,,,,,,,,,,,,,,,,,,,,,,,,,,,,,,,,,,,,,,,,,,,,,,,,,,,,,,,,,,,,,,,,,,,,,,,,,,382.4143926384859,None,382.4143926384859,None,382.4143926384859,None,383.4201366188936,None,None,,383.4201366188936,None,383.4201366188936,None,383.4201366188936,None,385.41109130345285,None,4,2.332483144942671,385.41109130345285,None,,,,,,,,,,,,,,,,,,,880818,1,2022_Mar_16_1548,encoding_smst,2021.1.2,59.976870061628205,
63,nagymama,kedvenc,TARG,,,,,,,,,,,,,,,,,0,22,22,22,,,,,,,,,,,,,,,,,,,,,,,,,,,,,,,,,,,,,,,,,,,,,,,,,,,,,,,,,,,,,,,,,,,,,,,,,,,,,,,388.411769608967,None,388.411769608967,None,388.411769608967,None,389.42405312508345,None,2,1.7364275171421468,389.42405312508345,None,389.42405312508345,None,389.42405312508345,None,391.4187473524362,None,j,1.3643075157888234,391.4187473524362,None,,,,,,,,,,,,,,,,,,,880818,1,2022_Mar_16_1548,encoding_smst,2021.1.2,59.976870061628205,
101,diskurzus,társadalmi,FOIL,,,,,,,,,,,,,,,,,0,23,23,23,,,,,,,,,,,,,,,,,,,,,,,,,,,,,,,,,,,,,,,,,,,,,,,,,,,,,,,,,,,,,,,,,,,,,,,,,,,,,,,394.4195282901637,None,394.4195282901637,None,394.4195282901637,None,395.42263369075954,None,None,,395.42263369075954,None,395.42263369075954,None,395.42263369075954,None,397.4183150534518,None,j,1.7392738494090736,397.4183150534518,None,,,,,,,,,,,,,,,,,,,880818,1,2022_Mar_16_1548,encoding_smst,2021.1.2,59.976870061628205,
106,munkagép,funkcionális,FOIL,,,,,,,,,,,,,,,,,0,24,24,24,,,,,,,,,,,,,,,,,,,,,,,,,,,,,,,,,,,,,,,,,,,,,,,,,,,,,,,,,,,,,,,,,,,,,,,,,,,,,,,400.41088386205956,None,400.41088386205956,None,400.41088386205956,None,401.4194477396086,None,None,,401.4194477396086,None,401.4194477396086,None,401.4194477396086,None,403.41072089457884,None,4,2.455599766690284,403.41072089457884,None,,,,,,,,,,,,,,,,,,,880818,1,2022_Mar_16_1548,encoding_smst,2021.1.2,59.976870061628205,
97,világítás,hangulatos,TARG,,,,,,,,,,,,,,,,,0,25,25,25,,,,,,,,,,,,,,,,,,,,,,,,,,,,,,,,,,,,,,,,,,,,,,,,,,,,,,,,,,,,,,,,,,,,,,,,,,,,,,,406.4141907952726,None,406.4141907952726,None,406.4141907952726,None,407.4310675673187,None,None,,407.4310675673187,None,407.4310675673187,None,407.4310675673187,None,409.42832884332165,None,4,2.249995179474354,409.42832884332165,None,,,,,,,,,,,,,,,,,,,880818,1,2022_Mar_16_1548,encoding_smst,2021.1.2,59.976870061628205,
96,ventilátor,masszív,TARG,,,,,,,,,,,,,,,,,0,26,26,26,,,,,,,,,,,,,,,,,,,,,,,,,,,,,,,,,,,,,,,,,,,,,,,,,,,,,,,,,,,,,,,,,,,,,,,,,,,,,,,412.4150983123109,None,412.4150983123109,None,412.4150983123109,None,413.41933235619217,None,None,,413.41933235619217,None,413.41933235619217,None,413.41933235619217,None,415.42588028870523,None,j,1.6324374889954925,415.42588028870523,None,,,,,,,,,,,,,,,,,,,880818,1,2022_Mar_16_1548,encoding_smst,2021.1.2,59.976870061628205,
25,fejfájás,alapfokú,DISTANT,,,,,,,,,,,,,,,,,0,27,27,27,,,,,,,,,,,,,,,,,,,,,,,,,,,,,,,,,,,,,,,,,,,,,,,,,,,,,,,,,,,,,,,,,,,,,,,,,,,,,,,418.43936833320186,None,418.43936833320186,None,418.43936833320186,None,419.4200075515546,None,None,,419.4200075515546,None,419.4200075515546,None,419.4200075515546,None,421.42505021207035,None,j,2.0197949474677444,421.42505021207035,None,,,,,,,,,,,,,,,,,,,880818,1,2022_Mar_16_1548,encoding_smst,2021.1.2,59.976870061628205,
39,készpénz,szerény,CLOSE,,,,,,,,,,,,,,,,,0,28,28,28,,,,,,,,,,,,,,,,,,,,,,,,,,,,,,,,,,,,,,,,,,,,,,,,,,,,,,,,,,,,,,,,,,,,,,,,,,,,,,,424.4308371115476,None,424.4308371115476,None,424.4308371115476,None,425.41949345730245,None,None,,425.41949345730245,None,425.41949345730245,None,425.41949345730245,None,427.40936614992097,None,4,2.190730386879295,427.40936614992097,None,,,,,,,,,,,,,,,,,,,880818,1,2022_Mar_16_1548,encoding_smst,2021.1.2,59.976870061628205,
72,professzor,közgazdasági,TARG,,,,,,,,,,,,,,,,,0,29,29,29,,,,,,,,,,,,,,,,,,,,,,,,,,,,,,,,,,,,,,,,,,,,,,,,,,,,,,,,,,,,,,,,,,,,,,,,,,,,,,,430.4230827842839,None,430.4230827842839,None,430.4230827842839,None,431.43362155370414,None,2,1.4195519261993468,431.43362155370414,None,431.43362155370414,None,431.43362155370414,None,433.4270882382989,None,j,0.9099623495712876,433.4270882382989,None,,,,,,,,,,,,,,,,,,,880818,1,2022_Mar_16_1548,encoding_smst,2021.1.2,59.976870061628205,
35,kapitány,szorgalmas,CLOSE,,,,,,,,,,,,,,,,,0,30,30,30,,,,,,,,,,,,,,,,,,,,,,,,,,,,,,,,,,,,,,,,,,,,,,,,,,,,,,,,,,,,,,,,,,,,,,,,,,,,,,,436.42947770189494,None,436.42947770189494,None,436.42947770189494,None,437.4350083321333,None,None,,437.4350083321333,None,437.4350083321333,None,437.4350083321333,None,439.4257571301423,None,j,1.9203636539168656,439.4257571301423,None,,,,,,,,,,,,,,,,,,,880818,1,2022_Mar_16_1548,encoding_smst,2021.1.2,59.976870061628205,
81,színdarab,humoros,TARG,,,,,,,,,,,,,,,,,0,31,31,31,,,,,,,,,,,,,,,,,,,,,,,,,,,,,,,,,,,,,,,,,,,,,,,,,,,,,,,,,,,,,,,,,,,,,,,,,,,,,,,442.4137525870465,None,442.4137525870465,None,442.4137525870465,None,443.43238872336224,None,2,1.828616399783641,443.43238872336224,None,443.43238872336224,None,443.43238872336224,None,445.42834937013686,None,j,1.5436161854304373,445.42834937013686,None,,,,,,,,,,,,,,,,,,,880818,1,2022_Mar_16_1548,encoding_smst,2021.1.2,59.976870061628205,
49,legénység,szárazföldi,CLOSE,,,,,,,,,,,,,,,,,0,32,32,32,,,,,,,,,,,,,,,,,,,,,,,,,,,,,,,,,,,,,,,,,,,,,,,,,,,,,,,,,,,,,,,,,,,,,,,,,,,,,,,448.4141099336557,None,448.4141099336557,None,448.4141099336557,None,449.42104693548754,None,None,,449.42104693548754,None,449.42104693548754,None,449.42104693548754,None,451.4250508341938,None,j,2.1539333313703537,451.4250508341938,None,,,,,,,,,,,,,,,,,,,880818,1,2022_Mar_16_1548,encoding_smst,2021.1.2,59.976870061628205,
4,állatkert,nyilvános,DISTANT,,,,,,,,,,,,,,,,,0,33,33,33,,,,,,,,,,,,,,,,,,,,,,,,,,,,,,,,,,,,,,,,,,,,,,,,,,,,,,,,,,,,,,,,,,,,,,,,,,,,,,,454.41180133167654,None,454.41180133167654,None,454.41180133167654,None,455.4282364747487,None,None,,455.4282364747487,None,455.4282364747487,None,455.4282364747487,None,457.42575028771535,None,j,2.2450535958632827,457.42575028771535,None,,,,,,,,,,,,,,,,,,,880818,1,2022_Mar_16_1548,encoding_smst,2021.1.2,59.976870061628205,
28,gorilla,problémás,CLOSE,,,,,,,,,,,,,,,,,0,34,34,34,,,,,,,,,,,,,,,,,,,,,,,,,,,,,,,,,,,,,,,,,,,,,,,,,,,,,,,,,,,,,,,,,,,,,,,,,,,,,,,460.41889819083735,None,460.41889819083735,None,460.41889819083735,None,461.4223024691455,None,None,,461.4223024691455,None,461.4223024691455,None,461.4223024691455,None,463.4252601414919,None,4,1.8844874892383814,463.4252601414919,None,,,,,,,,,,,,,,,,,,,880818,1,2022_Mar_16_1548,encoding_smst,2021.1.2,59.976870061628205,
36,kastély,páratlan,CLOSE,,,,,,,,,,,,,,,,,0,35,35,35,,,,,,,,,,,,,,,,,,,,,,,,,,,,,,,,,,,,,,,,,,,,,,,,,,,,,,,,,,,,,,,,,,,,,,,,,,,,,,,466.43581290589646,None,466.43581290589646,None,466.43581290589646,None,467.44064719229937,None,None,,467.44064719229937,None,467.44064719229937,None,467.44064719229937,None,469.42153739277273,None,4,2.923102999571711,469.42153739277273,None,,,,,,,,,,,,,,,,,,,880818,1,2022_Mar_16_1548,encoding_smst,2021.1.2,59.976870061628205,
29,nyereség,pillanatnyi,FOIL,,,,,,,,,,,,,,,,,0,36,36,36,,,,,,,,,,,,,,,,,,,,,,,,,,,,,,,,,,,,,,,,,,,,,,,,,,,,,,,,,,,,,,,,,,,,,,,,,,,,,,,472.41117092128843,None,472.41117092128843,None,472.41117092128843,None,473.43059048336,None,None,,473.43059048336,None,473.43059048336,None,473.43059048336,None,475.41034861980006,None,j,2.481552022509277,475.41034861980006,None,,,,,,,,,,,,,,,,,,,880818,1,2022_Mar_16_1548,encoding_smst,2021.1.2,59.976870061628205,
79,szemüveg,kényelmes,TARG,,,,,,,,,,,,,,,,,0,37,37,37,,,,,,,,,,,,,,,,,,,,,,,,,,,,,,,,,,,,,,,,,,,,,,,,,,,,,,,,,,,,,,,,,,,,,,,,,,,,,,,478.41092647006735,None,478.41092647006735,None,478.41092647006735,None,479.4219836872071,None,None,,479.4219836872071,None,479.4219836872071,None,479.4219836872071,None,481.42157595744357,None,j,1.2361392141319811,481.42157595744357,None,,,,,,,,,,,,,,,,,,,880818,1,2022_Mar_16_1548,encoding_smst,2021.1.2,59.976870061628205,
46,kommentár,tartalmas,CLOSE,,,,,,,,,,,,,,,,,0,38,38,38,,,,,,,,,,,,,,,,,,,,,,,,,,,,,,,,,,,,,,,,,,,,,,,,,,,,,,,,,,,,,,,,,,,,,,,,,,,,,,,484.4184046234004,None,484.4184046234004,None,484.4184046234004,None,485.43310372764245,None,None,,485.43310372764245,None,485.43310372764245,None,485.43310372764245,None,487.4244916443713,None,j,1.3389679435640574,487.4244916443713,None,,,,,,,,,,,,,,,,,,,880818,1,2022_Mar_16_1548,encoding_smst,2021.1.2,59.976870061628205,
38,kerékpár,intelligens,CLOSE,,,,,,,,,,,,,,,,,0,39,39,39,,,,,,,,,,,,,,,,,,,,,,,,,,,,,,,,,,,,,,,,,,,,,,,,,,,,,,,,,,,,,,,,,,,,,,,,,,,,,,,490.4109267811291,None,490.4109267811291,None,490.4109267811291,None,491.42940710345283,None,None,,491.42940710345283,None,491.42940710345283,None,491.42940710345283,None,493.4172598081641,None,j,2.2211788641288877,493.4172598081641,None,,,,,,,,,,,,,,,,,,,880818,1,2022_Mar_16_1548,encoding_smst,2021.1.2,59.976870061628205,
95,végállomás,ideiglenes,TARG,,,,,,,,,,,,,,,,,0,40,40,40,,,,,,,,,,,,,,,,,,,,,,,,,,,,,,,,,,,,,,,,,,,,,,,,,,,,,,,,,,,,,,,,,,,,,,,,,,,,,,,496.4237934346311,None,496.4237934346311,None,496.4237934346311,None,497.4180298605934,None,None,,497.4180298605934,None,497.4180298605934,None,497.4180298605934,None,499.41892742551863,None,2,1.2254219269379973,499.41892742551863,None,,,,,,,,,,,,,,,,,,,880818,1,2022_Mar_16_1548,encoding_smst,2021.1.2,59.976870061628205,
91,tűzijáték,nagyszabású,TARG,,,,,,,,,,,,,,,,,0,41,41,41,,,,,,,,,,,,,,,,,,,,,,,,,,,,,,,,,,,,,,,,,,,,,,,,,,,,,,,,,,,,,,,,,,,,,,,,,,,,,,,502.4184587383643,None,502.4184587383643,None,502.4184587383643,None,503.42817800538614,None,None,,503.42817800538614,None,503.42817800538614,None,503.42817800538614,None,505.426614575088,None,j,1.0366437286138535,505.426614575088,None,,,,,,,,,,,,,,,,,,,880818,1,2022_Mar_16_1548,encoding_smst,2021.1.2,59.976870061628205,
125,csemege,temérdek,FOIL,,,,,,,,,,,,,,,,,0,42,42,42,,,,,,,,,,,,,,,,,,,,,,,,,,,,,,,,,,,,,,,,,,,,,,,,,,,,,,,,,,,,,,,,,,,,,,,,,,,,,,,508.4105650805868,None,508.4105650805868,None,508.4105650805868,None,509.42137598013505,None,None,,509.42137598013505,None,509.42137598013505,None,509.42137598013505,None,511.4242698964663,None,j,0.9594002673402429,511.4242698964663,None,,,,,,,,,,,,,,,,,,,880818,1,2022_Mar_16_1548,encoding_smst,2021.1.2,59.976870061628205,
69,célpont,potenciális,FOIL,,,,,,,,,,,,,,,,,0,43,43,43,,,,,,,,,,,,,,,,,,,,,,,,,,,,,,,,,,,,,,,,,,,,,,,,,,,,,,,,,,,,,,,,,,,,,,,,,,,,,,,514.4103402225301,None,514.4103402225301,None,514.4103402225301,None,515.4298484218307,None,None,,515.4298484218307,None,515.4298484218307,None,515.4298484218307,None,517.4269318021834,None,j,1.1723163085989654,517.4269318021834,None,,,,,,,,,,,,,,,,,,,880818,1,2022_Mar_16_1548,encoding_smst,2021.1.2,59.976870061628205,
76,szabadidő,kellemes,TARG,,,,,,,,,,,,,,,,,0,44,44,44,,,,,,,,,,,,,,,,,,,,,,,,,,,,,,,,,,,,,,,,,,,,,,,,,,,,,,,,,,,,,,,,,,,,,,,,,,,,,,,520.4182295268402,None,520.4182295268402,None,520.4182295268402,None,521.4184092883952,None,None,,521.4184092883952,None,521.4184092883952,None,521.4184092883952,None,523.4177916292101,None,4,1.3275987864471972,523.4177916292101,None,,,,,,,,,,,,,,,,,,,880818,1,2022_Mar_16_1548,encoding_smst,2021.1.2,59.976870061628205,
73,rémálom,szomorú,TARG,,,,,,,,,,,,,,,,,0,45,45,45,,,,,,,,,,,,,,,,,,,,,,,,,,,,,,,,,,,,,,,,,,,,,,,,,,,,,,,,,,,,,,,,,,,,,,,,,,,,,,,526.4182528522797,None,526.4182528522797,None,526.4182528522797,None,527.4202821701765,None,None,,527.4202821701765,None,527.4202821701765,None,527.4202821701765,None,529.4243246335536,None,j,1.5807130513712764,529.4243246335536,None,,,,,,,,,,,,,,,,,,,880818,1,2022_Mar_16_1548,encoding_smst,2021.1.2,59.976870061628205,
40,kesztyű,harcias,CLOSE,,,,,,,,,,,,,,,,,0,46,46,46,,,,,,,,,,,,,,,,,,,,,,,,,,,,,,,,,,,,,,,,,,,,,,,,,,,,,,,,,,,,,,,,,,,,,,,,,,,,,,,532.4239983879961,None,532.4239983879961,None,532.4239983879961,None,533.4226949592121,None,j,1.8422938473522663,533.4226949592121,None,533.4226949592121,None,533.4226949592121,None,535.4239834593609,None,j,0.30102420691400766,535.4239834593609,None,,,,,,,,,,,,,,,,,,,880818,1,2022_Mar_16_1548,encoding_smst,2021.1.2,59.976870061628205,
65,novella,tanulságos,TARG,,,,,,,,,,,,,,,,,0,47,47,47,,,,,,,,,,,,,,,,,,,,,,,,,,,,,,,,,,,,,,,,,,,,,,,,,,,,,,,,,,,,,,,,,,,,,,,,,,,,,,,538.4211299740709,None,538.4211299740709,None,538.4211299740709,None,539.4298816993833,None,2,1.777029737830162,539.4298816993833,None,539.4298816993833,None,539.4298816993833,None,541.4158263788559,None,j,1.0280630569905043,541.4158263788559,None,,,,,,,,,,,,,,,,,,,880818,1,2022_Mar_16_1548,encoding_smst,2021.1.2,59.976870061628205,
30,háziorvos,szomszédos,CLOSE,,,,,,,,,,,,,,,,,0,48,48,48,,,,,,,,,,,,,,,,,,,,,,,,,,,,,,,,,,,,,,,,,,,,,,,,,,,,,,,,,,,,,,,,,,,,,,,,,,,,,,,544.4104528068565,None,544.4104528068565,None,544.4104528068565,None,545.4305544067174,None,None,,545.4305544067174,None,545.4305544067174,None,545.4305544067174,None,547.4149070433341,None,j,1.427900587208569,547.4149070433341,None,,,,,,,,,,,,,,,,,,,880818,1,2022_Mar_16_1548,encoding_smst,2021.1.2,59.976870061628205,
67,oroszlán,nyugodt,TARG,,,,,,,,,,,,,,,,,0,49,49,49,,,,,,,,,,,,,,,,,,,,,,,,,,,,,,,,,,,,,,,,,,,,,,,,,,,,,,,,,,,,,,,,,,,,,,,,,,,,,,,550.4327361178584,None,550.4327361178584,None,550.4327361178584,None,551.4197338656522,None,None,,551.4197338656522,None,551.4197338656522,None,551.4197338656522,None,553.4263928276487,None,j,1.3443527114577591,553.4263928276487,None,,,,,,,,,,,,,,,,,,,880818,1,2022_Mar_16_1548,encoding_smst,2021.1.2,59.976870061628205,
98,zarándok,keresztény,TARG,,,,,,,,,,,,,,,,,0,50,50,50,,,,,,,,,,,,,,,,,,,,,,,,,,,,,,,,,,,,,,,,,,,,,,,,,,,,,,,,,,,,,,,,,,,,,,,,,,,,,,,556.419687836431,None,556.419687836431,None,556.419687836431,None,557.4236911134794,None,None,,557.4236911134794,None,557.4236911134794,None,557.4236911134794,None,559.4220564626157,None,j,1.2446038802154362,559.4220564626157,None,,,,,,,,,,,,,,,,,,,880818,1,2022_Mar_16_1548,encoding_smst,2021.1.2,59.976870061628205,
48,költészet,szimbolikus,CLOSE,,,,,,,,,,,,,,,,,0,51,51,51,,,,,,,,,,,,,,,,,,,,,,,,,,,,,,,,,,,,,,,,,,,,,,,,,,,,,,,,,,,,,,,,,,,,,,,,,,,,,,,562.4347803639248,None,562.4347803639248,None,562.4347803639248,None,563.4200181257911,None,None,,563.4200181257911,None,563.4200181257911,None,563.4200181257911,None,565.4152339114808,None,j,1.998871979303658,565.4152339114808,None,,,,,,,,,,,,,,,,,,,880818,1,2022_Mar_16_1548,encoding_smst,2021.1.2,59.976870061628205,
24,fejedelem,pártatlan,DISTANT,,,,,,,,,,,,,,,,,0,52,52,52,,,,,,,,,,,,,,,,,,,,,,,,,,,,,,,,,,,,,,,,,,,,,,,,,,,,,,,,,,,,,,,,,,,,,,,,,,,,,,,568.4184366571717,None,568.4184366571717,None,568.4184366571717,None,569.4341552411206,None,None,,569.4341552411206,None,569.4341552411206,None,569.4341552411206,None,571.4109071874991,None,j,1.7045365907251835,571.4109071874991,None,,,,,,,,,,,,,,,,,,,880818,1,2022_Mar_16_1548,encoding_smst,2021.1.2,59.976870061628205,
57,monitor,kijelzős,TARG,,,,,,,,,,,,,,,,,0,53,53,53,,,,,,,,,,,,,,,,,,,,,,,,,,,,,,,,,,,,,,,,,,,,,,,,,,,,,,,,,,,,,,,,,,,,,,,,,,,,,,,574.4217317719012,None,574.4217317719012,None,574.4217317719012,None,575.4312607026659,None,None,,575.4312607026659,None,575.4312607026659,None,575.4312607026659,None,577.4233878818341,None,j,1.35852030524984,577.4233878818341,None,,,,,,,,,,,,,,,,,,,880818,1,2022_Mar_16_1548,encoding_smst,2021.1.2,59.976870061628205,
50,lépcsőház,komplett,CLOSE,,,,,,,,,,,,,,,,,0,54,54,54,,,,,,,,,,,,,,,,,,,,,,,,,,,,,,,,,,,,,,,,,,,,,,,,,,,,,,,,,,,,,,,,,,,,,,,,,,,,,,,580.4095885199495,None,580.4095885199495,None,580.4095885199495,None,581.4205359513871,None,None,,581.4205359513871,None,581.4205359513871,None,581.4205359513871,None,583.4237744631246,None,4,2.1688924371264875,583.4237744631246,None,,,,,,,,,,,,,,,,,,,880818,1,2022_Mar_16_1548,encoding_smst,2021.1.2,59.976870061628205,
84,tananyag,iskolai,TARG,,,,,,,,,,,,,,,,,0,55,55,55,,,,,,,,,,,,,,,,,,,,,,,,,,,,,,,,,,,,,,,,,,,,,,,,,,,,,,,,,,,,,,,,,,,,,,,,,,,,,,,586.4345685685985,None,586.4345685685985,None,586.4345685685985,None,587.4187066107988,None,2,1.7258545374497771,587.4187066107988,None,587.4187066107988,None,587.4187066107988,None,589.407559201587,None,j,0.4837741646915674,589.407559201587,None,,,,,,,,,,,,,,,,,,,880818,1,2022_Mar_16_1548,encoding_smst,2021.1.2,59.976870061628205,
100,zöldség,rendszeres,TARG,,,,,,,,,,,,,,,,,0,56,56,56,,,,,,,,,,,,,,,,,,,,,,,,,,,,,,,,,,,,,,,,,,,,,,,,,,,,,,,,,,,,,,,,,,,,,,,,,,,,,,,592.4174408139661,None,592.4174408139661,None,592.4174408139661,None,593.4298123447224,None,None,,593.4298123447224,None,593.4298123447224,None,593.4298123447224,None,595.4235580023378,None,j,1.5092571107670665,595.4235580023378,None,,,,,,,,,,,,,,,,,,,880818,1,2022_Mar_16_1548,encoding_smst,2021.1.2,59.976870061628205,
15,csengőhang,egykori,DISTANT,,,,,,,,,,,,,,,,,0,57,57,57,,,,,,,,,,,,,,,,,,,,,,,,,,,,,,,,,,,,,,,,,,,,,,,,,,,,,,,,,,,,,,,,,,,,,,,,,,,,,,,598.4246182241477,None,598.4246182241477,None,598.4246182241477,None,599.4234933131374,None,None,,599.4234933131374,None,599.4234933131374,None,599.4234933131374,None,601.4202896342613,None,4,2.5262545538134873,601.4202896342613,None,,,,,,,,,,,,,,,,,,,880818,1,2022_Mar_16_1548,encoding_smst,2021.1.2,59.976870061628205,
33,iránytű,előnyös,CLOSE,,,,,,,,,,,,,,,,,0,58,58,58,,,,,,,,,,,,,,,,,,,,,,,,,,,,,,,,,,,,,,,,,,,,,,,,,,,,,,,,,,,,,,,,,,,,,,,,,,,,,,,604.4336380371824,None,604.4336380371824,None,604.4336380371824,None,605.4195954673924,None,None,,605.4195954673924,None,605.4195954673924,None,605.4195954673924,None,607.4165883450769,None,4,1.2355330623686314,607.4165883450769,None,,,,,,,,,,,,,,,,,,,880818,1,2022_Mar_16_1548,encoding_smst,2021.1.2,59.976870061628205,
70,pénztárca,ismeretlen,TARG,,,,,,,,,,,,,,,,,0,59,59,59,,,,,,,,,,,,,,,,,,,,,,,,,,,,,,,,,,,,,,,,,,,,,,,,,,,,,,,,,,,,,,,,,,,,,,,,,,,,,,,610.4115795837715,None,610.4115795837715,None,610.4115795837715,None,611.4404985313304,None,j,1.9065534062683582,611.4404985313304,None,611.4404985313304,None,611.4404985313304,None,613.4257773454301,None,4,0.7542537925764918,613.4257773454301,None,,,,,,,,,,,,,,,,,,,880818,1,2022_Mar_16_1548,encoding_smst,2021.1.2,59.976870061628205,
47,koponya,jelentéktelen,CLOSE,,,,,,,,,,,,,,,,,0,60,60,60,,,,,,,,,,,,,,,,,,,,,,,,,,,,,,,,,,,,,,,,,,,,,,,,,,,,,,,,,,,,,,,,,,,,,,,,,,,,,,,616.4261580174789,None,616.4261580174789,None,616.4261580174789,None,617.4251127243042,None,None,,617.4251127243042,None,617.4251127243042,None,617.4251127243042,None,619.4332598531619,None,4,2.1067461683414876,619.4332598531619,None,,,,,,,,,,,,,,,,,,,880818,1,2022_Mar_16_1548,encoding_smst,2021.1.2,59.976870061628205,
45,kolostor,reneszánsz,CLOSE,,,,,,,,,,,,,,,,,0,61,61,61,,,,,,,,,,,,,,,,,,,,,,,,,,,,,,,,,,,,,,,,,,,,,,,,,,,,,,,,,,,,,,,,,,,,,,,,,,,,,,,622.4241778384894,None,622.4241778384894,None,622.4241778384894,None,623.4232644122094,None,None,,623.4232644122094,None,623.4232644122094,None,623.4232644122094,None,625.4221724681556,None,j,1.4518297454342246,625.4221724681556,None,,,,,,,,,,,,,,,,,,,880818,1,2022_Mar_16_1548,encoding_smst,2021.1.2,59.976870061628205,
31,nagykövet,befolyásos,FOIL,,,,,,,,,,,,,,,,,0,62,62,62,,,,,,,,,,,,,,,,,,,,,,,,,,,,,,,,,,,,,,,,,,,,,,,,,,,,,,,,,,,,,,,,,,,,,,,,,,,,,,,628.4226719448343,None,628.4226719448343,None,628.4226719448343,None,629.422276344616,None,None,,629.422276344616,None,629.422276344616,None,629.422276344616,None,631.4085435378365,None,4,1.5253330413252115,631.4085435378365,None,,,,,,,,,,,,,,,,,,,880818,1,2022_Mar_16_1548,encoding_smst,2021.1.2,59.976870061628205,
62,művészet,vizuális,TARG,,,,,,,,,,,,,,,,,0,63,63,63,,,,,,,,,,,,,,,,,,,,,,,,,,,,,,,,,,,,,,,,,,,,,,,,,,,,,,,,,,,,,,,,,,,,,,,,,,,,,,,634.4156686984934,None,634.4156686984934,None,634.4156686984934,None,635.4202781273052,None,None,,635.4202781273052,None,635.4202781273052,None,635.4202781273052,None,637.4082710957155,None,j,1.0818345407024026,637.4082710957155,None,,,,,,,,,,,,,,,,,,,880818,1,2022_Mar_16_1548,encoding_smst,2021.1.2,59.976870061628205,
61,műemlék,természeti,TARG,,,,,,,,,,,,,,,,,0,64,64,64,,,,,,,,,,,,,,,,,,,,,,,,,,,,,,,,,,,,,,,,,,,,,,,,,,,,,,,,,,,,,,,,,,,,,,,,,,,,,,,640.416594253853,None,640.416594253853,None,640.416594253853,None,641.4208429148421,None,None,,641.4208429148421,None,641.4208429148421,None,641.4208429148421,None,643.4248580099083,None,j,0.8432990210130811,643.4248580099083,None,,,,,,,,,,,,,,,,,,,880818,1,2022_Mar_16_1548,encoding_smst,2021.1.2,59.976870061628205,
5,áruházlánc,különös,DISTANT,,,,,,,,,,,,,,,,,0,65,65,65,,,,,,,,,,,,,,,,,,,,,,,,,,,,,,,,,,,,,,,,,,,,,,,,,,,,,,,,,,,,,,,,,,,,,,,,,,,,,,,646.421412368305,None,646.421412368305,None,646.421412368305,None,647.4231207272969,None,None,,647.4231207272969,None,647.4231207272969,None,647.4231207272969,None,649.4302884959616,None,j,0.6634849654510617,649.4302884959616,None,,,,,,,,,,,,,,,,,,,880818,1,2022_Mar_16_1548,encoding_smst,2021.1.2,59.976870061628205,
6,ásványvíz,mocskos,DISTANT,,,,,,,,,,,,,,,,,0,66,66,66,,,,,,,,,,,,,,,,,,,,,,,,,,,,,,,,,,,,,,,,,,,,,,,,,,,,,,,,,,,,,,,,,,,,,,,,,,,,,,,652.4197068079375,None,652.4197068079375,None,652.4197068079375,None,653.4395888368599,None,None,,653.4395888368599,None,653.4395888368599,None,653.4395888368599,None,655.4201549682766,None,j,1.065442627761513,655.4201549682766,None,,,,,,,,,,,,,,,,,,,880818,1,2022_Mar_16_1548,encoding_smst,2021.1.2,59.976870061628205,
89,törmelék,építkezési,TARG,,,,,,,,,,,,,,,,,0,67,67,67,,,,,,,,,,,,,,,,,,,,,,,,,,,,,,,,,,,,,,,,,,,,,,,,,,,,,,,,,,,,,,,,,,,,,,,,,,,,,,,658.4292407147586,None,658.4292407147586,None,658.4292407147586,None,659.4166754269972,None,None,,659.4166754269972,None,659.4166754269972,None,659.4166754269972,None,661.4314572587609,None,j,1.7004365911707282,661.4314572587609,None,,,,,,,,,,,,,,,,,,,880818,1,2022_Mar_16_1548,encoding_smst,2021.1.2,59.976870061628205,
19,diktátor,térségi,DISTANT,,,,,,,,,,,,,,,,,0,68,68,68,,,,,,,,,,,,,,,,,,,,,,,,,,,,,,,,,,,,,,,,,,,,,,,,,,,,,,,,,,,,,,,,,,,,,,,,,,,,,,,664.4192337668501,None,664.4192337668501,None,664.4192337668501,None,665.4211312183179,None,None,,665.4211312183179,None,665.4211312183179,None,665.4211312183179,None,667.4084390392527,None,j,1.6460197689011693,667.4084390392527,None,,,,,,,,,,,,,,,,,,,880818,1,2022_Mar_16_1548,encoding_smst,2021.1.2,59.976870061628205,
12,boríték,kétoldalú,DISTANT,,,,,,,,,,,,,,,,,0,69,69,69,,,,,,,,,,,,,,,,,,,,,,,,,,,,,,,,,,,,,,,,,,,,,,,,,,,,,,,,,,,,,,,,,,,,,,,,,,,,,,,670.4185728779994,None,670.4185728779994,None,670.4185728779994,None,671.4221329702996,None,None,,671.4221329702996,None,671.4221329702996,None,671.4221329702996,None,673.4220474436879,None,j,0.7456569485366344,673.4220474436879,None,,,,,,,,,,,,,,,,,,,880818,1,2022_Mar_16_1548,encoding_smst,2021.1.2,59.976870061628205,
38,korosztály,szerencsés,FOIL,,,,,,,,,,,,,,,,,0,70,70,70,,,,,,,,,,,,,,,,,,,,,,,,,,,,,,,,,,,,,,,,,,,,,,,,,,,,,,,,,,,,,,,,,,,,,,,,,,,,,,,676.4320500371978,None,676.4320500371978,None,676.4320500371978,None,677.4350394327193,None,None,,677.4350394327193,None,677.4350394327193,None,677.4350394327193,None,679.4242985090241,None,j,1.6690261699259281,679.4242985090241,None,,,,,,,,,,,,,,,,,,,880818,1,2022_Mar_16_1548,encoding_smst,2021.1.2,59.976870061628205,
21,díszterem,egyszeri,DISTANT,,,,,,,,,,,,,,,,,0,71,71,71,,,,,,,,,,,,,,,,,,,,,,,,,,,,,,,,,,,,,,,,,,,,,,,,,,,,,,,,,,,,,,,,,,,,,,,,,,,,,,,682.4182578283362,None,682.4182578283362,None,682.4182578283362,None,683.4316718531772,None,None,,683.4316718531772,None,683.4316718531772,None,683.4316718531772,None,685.4237915682606,None,4,0.8656858969479799,685.4237915682606,None,,,,,,,,,,,,,,,,,,,880818,1,2022_Mar_16_1548,encoding_smst,2021.1.2,59.976870061628205,
95,gyűlölet,mélységes,FOIL,,,,,,,,,,,,,,,,,0,72,72,72,,,,,,,,,,,,,,,,,,,,,,,,,,,,,,,,,,,,,,,,,,,,,,,,,,,,,,,,,,,,,,,,,,,,,,,,,,,,,,,688.4243308538571,None,688.4243308538571,None,688.4243308538571,None,689.4247578657232,None,None,,689.4247578657232,None,689.4247578657232,None,689.4247578657232,None,691.4260373469442,None,j,1.4145064670592546,691.4260373469442,None,,,,,,,,,,,,,,,,,,,880818,1,2022_Mar_16_1548,encoding_smst,2021.1.2,59.976870061628205,
16,csillagász,taláros,DISTANT,,,,,,,,,,,,,,,,,0,73,73,73,,,,,,,,,,,,,,,,,,,,,,,,,,,,,,,,,,,,,,,,,,,,,,,,,,,,,,,,,,,,,,,,,,,,,,,,,,,,,,,694.4175179437734,None,694.4175179437734,None,694.4175179437734,None,695.421118777711,None,None,,695.421118777711,None,695.421118777711,None,695.421118777711,None,697.4255450237542,None,j,2.341526905540377,697.4255450237542,None,,,,,,,,,,,,,,,,,,,880818,1,2022_Mar_16_1548,encoding_smst,2021.1.2,59.976870061628205,
65,alapanyag,folyékony,FOIL,,,,,,,,,,,,,,,,,0,74,74,74,,,,,,,,,,,,,,,,,,,,,,,,,,,,,,,,,,,,,,,,,,,,,,,,,,,,,,,,,,,,,,,,,,,,,,,,,,,,,,,700.4198427177034,None,700.4198427177034,None,700.4198427177034,None,701.427895611152,None,None,,701.427895611152,None,701.427895611152,None,701.427895611152,None,703.4223696463741,None,4,2.458927537314594,703.4223696463741,None,,,,,,,,,,,,,,,,,,,880818,1,2022_Mar_16_1548,encoding_smst,2021.1.2,59.976870061628205,
71,pisztoly,törvénytelen,TARG,,,,,,,,,,,,,,,,,0,75,75,75,,,,,,,,,,,,,,,,,,,,,,,,,,,,,,,,,,,,,,,,,,,,,,,,,,,,,,,,,,,,,,,,,,,,,,,,,,,,,,,706.415933676064,None,706.415933676064,None,706.415933676064,None,707.4468726110645,None,j,1.8500836296007037,707.4468726110645,None,707.4468726110645,None,707.4468726110645,None,709.4216400249861,None,4,0.5973848700523376,709.4216400249861,None,,,,,,,,,,,,,,,,,,,880818,1,2022_Mar_16_1548,encoding_smst,2021.1.2,59.976870061628205,
37,képregény,félelmetes,CLOSE,,,,,,,,,,,,,,,,,0,76,76,76,,,,,,,,,,,,,,,,,,,,,,,,,,,,,,,,,,,,,,,,,,,,,,,,,,,,,,,,,,,,,,,,,,,,,,,,,,,,,,,712.4295287071727,None,712.4295287071727,None,712.4295287071727,None,713.4206594210118,None,None,,713.4206594210118,None,713.4206594210118,None,713.4206594210118,None,715.4241330535151,None,4,1.1237439224496484,715.4241330535151,None,,,,,,,,,,,,,,,,,,,880818,1,2022_Mar_16_1548,encoding_smst,2021.1.2,59.976870061628205,
87,telefonszám,otthoni,TARG,,,,,,,,,,,,,,,,,0,77,77,77,,,,,,,,,,,,,,,,,,,,,,,,,,,,,,,,,,,,,,,,,,,,,,,,,,,,,,,,,,,,,,,,,,,,,,,,,,,,,,,718.416961863637,None,718.416961863637,None,718.416961863637,None,719.4203779599629,None,None,,719.4203779599629,None,719.4203779599629,None,719.4203779599629,None,721.4136272510514,None,j,1.8981621377170086,721.4136272510514,None,,,,,,,,,,,,,,,,,,,880818,1,2022_Mar_16_1548,encoding_smst,2021.1.2,59.976870061628205,
34,kánikula,húsvéti,CLOSE,,,,,,,,,,,,,,,,,0,78,78,78,,,,,,,,,,,,,,,,,,,,,,,,,,,,,,,,,,,,,,,,,,,,,,,,,,,,,,,,,,,,,,,,,,,,,,,,,,,,,,,724.4216135893948,None,724.4216135893948,None,724.4216135893948,None,725.4177480884828,None,None,,725.4177480884828,None,725.4177480884828,None,725.4177480884828,None,727.4288314301521,None,4,1.6429404928348958,727.4288314301521,None,,,,,,,,,,,,,,,,,,,880818,1,2022_Mar_16_1548,encoding_smst,2021.1.2,59.976870061628205,
27,gázvezeték,szabadtéri,CLOSE,,,,,,,,,,,,,,,,,0,79,79,79,,,,,,,,,,,,,,,,,,,,,,,,,,,,,,,,,,,,,,,,,,,,,,,,,,,,,,,,,,,,,,,,,,,,,,,,,,,,,,,730.4305317034014,None,730.4305317034014,None,730.4305317034014,None,731.4315913026221,None,None,,731.4315913026221,None,731.4315913026221,None,731.4315913026221,None,733.4338644496165,None,4,1.5001374650746584,733.4338644496165,None,,,,,,,,,,,,,,,,,,,880818,1,2022_Mar_16_1548,encoding_smst,2021.1.2,59.976870061628205,
119,felajánlás,tömeges,FOIL,,,,,,,,,,,,,,,,,0,80,80,80,,,,,,,,,,,,,,,,,,,,,,,,,,,,,,,,,,,,,,,,,,,,,,,,,,,,,,,,,,,,,,,,,,,,,,,,,,,,,,,736.4247435596772,None,736.4247435596772,None,736.4247435596772,None,737.4753928482533,None,None,,737.4753928482533,None,737.4753928482533,None,737.4753928482533,None,739.4146059891209,None,j,0.7594416933134198,739.4146059891209,None,,,,,,,,,,,,,,,,,,,880818,1,2022_Mar_16_1548,encoding_smst,2021.1.2,59.976870061628205,
13,táplálék,elégséges,FOIL,,,,,,,,,,,,,,,,,0,81,81,81,,,,,,,,,,,,,,,,,,,,,,,,,,,,,,,,,,,,,,,,,,,,,,,,,,,,,,,,,,,,,,,,,,,,,,,,,,,,,,,742.4269075435586,None,742.4269075435586,None,742.4269075435586,None,743.4222066788934,None,None,,743.4222066788934,None,743.4222066788934,None,743.4222066788934,None,745.4165127705783,None,4,1.6250395756214857,745.4165127705783,None,,,,,,,,,,,,,,,,,,,880818,1,2022_Mar_16_1548,encoding_smst,2021.1.2,59.976870061628205,
94,vacsora,zártkörű,TARG,,,,,,,,,,,,,,,,,0,82,82,82,,,,,,,,,,,,,,,,,,,,,,,,,,,,,,,,,,,,,,,,,,,,,,,,,,,,,,,,,,,,,,,,,,,,,,,,,,,,,,,748.4247068609111,None,748.4247068609111,None,748.4247068609111,None,749.421763183549,None,2,1.8320757267065346,749.421763183549,None,749.421763183549,None,749.421763183549,None,751.4123558565043,None,4,0.7121696257963777,751.4123558565043,None,,,,,,,,,,,,,,,,,,,880818,1,2022_Mar_16_1548,encoding_smst,2021.1.2,59.976870061628205,
44,kollégium,felsőoktatási,CLOSE,,,,,,,,,,,,,,,,,0,83,83,83,,,,,,,,,,,,,,,,,,,,,,,,,,,,,,,,,,,,,,,,,,,,,,,,,,,,,,,,,,,,,,,,,,,,,,,,,,,,,,,754.4214356937446,None,754.4214356937446,None,754.4214356937446,None,755.4199136272073,None,None,,755.4199136272073,None,755.4199136272073,None,755.4199136272073,None,757.4293862660415,None,4,1.0343317058868706,757.4293862660415,None,,,,,,,,,,,,,,,,,,,880818,1,2022_Mar_16_1548,encoding_smst,2021.1.2,59.976870061628205,
68,osztályzat,közepes,TARG,,,,,,,,,,,,,,,,,0,84,84,84,,,,,,,,,,,,,,,,,,,,,,,,,,,,,,,,,,,,,,,,,,,,,,,,,,,,,,,,,,,,,,,,,,,,,,,,,,,,,,,760.4176227529533,None,760.4176227529533,None,760.4176227529533,None,761.4254427026026,None,None,,761.4254427026026,None,761.4254427026026,None,761.4254427026026,None,763.4215800007805,None,4,0.8930703378282487,763.4215800007805,None,,,,,,,,,,,,,,,,,,,880818,1,2022_Mar_16_1548,encoding_smst,2021.1.2,59.976870061628205,
66,olimpikon,legendás,TARG,,,,,,,,,,,,,,,,,0,85,85,85,,,,,,,,,,,,,,,,,,,,,,,,,,,,,,,,,,,,,,,,,,,,,,,,,,,,,,,,,,,,,,,,,,,,,,,,,,,,,,,766.4165547564626,None,766.4165547564626,None,766.4165547564626,None,767.4192623794079,None,None,,767.4192623794079,None,767.4192623794079,None,767.4192623794079,None,769.4210382271558,None,4,0.8674819599837065,769.4210382271558,None,,,,,,,,,,,,,,,,,,,880818,1,2022_Mar_16_1548,encoding_smst,2021.1.2,59.976870061628205,
11,benzinkút,nagyvállalati,DISTANT,,,,,,,,,,,,,,,,,0,86,86,86,,,,,,,,,,,,,,,,,,,,,,,,,,,,,,,,,,,,,,,,,,,,,,,,,,,,,,,,,,,,,,,,,,,,,,,,,,,,,,,772.4308427097276,None,772.4308427097276,None,772.4308427097276,None,773.4352198163979,None,None,,773.4352198163979,None,773.4352198163979,None,773.4352198163979,None,775.4223982589319,None,j,1.8692214195616543,775.4223982589319,None,,,,,,,,,,,,,,,,,,,880818,1,2022_Mar_16_1548,encoding_smst,2021.1.2,59.976870061628205,
58,közvetítés,globális,FOIL,,,,,,,,,,,,,,,,,0,87,87,87,,,,,,,,,,,,,,,,,,,,,,,,,,,,,,,,,,,,,,,,,,,,,,,,,,,,,,,,,,,,,,,,,,,,,,,,,,,,,,,778.4300745236687,None,778.4300745236687,None,778.4300745236687,None,779.4259428009391,None,None,,779.4259428009391,None,779.4259428009391,None,779.4259428009391,None,781.421139926184,None,j,2.9140536412596703,781.421139926184,None,,,,,,,,,,,,,,,,,,,880818,1,2022_Mar_16_1548,encoding_smst,2021.1.2,59.976870061628205,
85,tanfolyam,gyakorlati,TARG,,,,,,,,,,,,,,,,,0,88,88,88,,,,,,,,,,,,,,,,,,,,,,,,,,,,,,,,,,,,,,,,,,,,,,,,,,,,,,,,,,,,,,,,,,,,,,,,,,,,,,,784.4247261434793,None,784.4247261434793,None,784.4247261434793,None,785.4238864253275,None,2,1.6345793916843832,785.4238864253275,None,785.4238864253275,None,785.4238864253275,None,787.4268098874018,None,j,0.44029731024056673,787.4268098874018,None,,,,,,,,,,,,,,,,,,,880818,1,2022_Mar_16_1548,encoding_smst,2021.1.2,59.976870061628205,
58,mutatvány,szánalmas,TARG,,,,,,,,,,,,,,,,,0,89,89,89,,,,,,,,,,,,,,,,,,,,,,,,,,,,,,,,,,,,,,,,,,,,,,,,,,,,,,,,,,,,,,,,,,,,,,,,,,,,,,,790.4211585866287,None,790.4211585866287,None,790.4211585866287,None,791.4363954211585,None,None,,791.4363954211585,None,791.4363954211585,None,791.4363954211585,None,793.4150224267505,None,j,1.3129656156525016,793.4150224267505,None,,,,,,,,,,,,,,,,,,,880818,1,2022_Mar_16_1548,encoding_smst,2021.1.2,59.976870061628205,
1,akadály,beszélgetési,DISTANT,,,,,,,,,,,,,,,,,0,90,90,90,,,,,,,,,,,,,,,,,,,,,,,,,,,,,,,,,,,,,,,,,,,,,,,,,,,,,,,,,,,,,,,,,,,,,,,,,,,,,,,796.4153673332185,None,796.4153673332185,None,796.4153673332185,None,797.4246664298698,None,None,,797.4246664298698,None,797.4246664298698,None,797.4246664298698,None,799.4307012017816,None,j,0.7992816367186606,799.4307012017816,None,,,,,,,,,,,,,,,,,,,880818,1,2022_Mar_16_1548,encoding_smst,2021.1.2,59.976870061628205,
54,mellény,sportos,TARG,,,,,,,,,,,,,,,,,0,91,91,91,,,,,,,,,,,,,,,,,,,,,,,,,,,,,,,,,,,,,,,,,,,,,,,,,,,,,,,,,,,,,,,,,,,,,,,,,,,,,,,802.436199487187,None,802.436199487187,None,802.436199487187,None,803.4211010504514,None,2,1.9517448404803872,803.4211010504514,None,803.4211010504514,None,803.4211010504514,None,805.4255929184146,None,j,0.8786797518841922,805.4255929184146,None,,,,,,,,,,,,,,,,,,,880818,1,2022_Mar_16_1548,encoding_smst,2021.1.2,59.976870061628205,
32,horgász,tengerparti,CLOSE,,,,,,,,,,,,,,,,,0,92,92,92,,,,,,,,,,,,,,,,,,,,,,,,,,,,,,,,,,,,,,,,,,,,,,,,,,,,,,,,,,,,,,,,,,,,,,,,,,,,,,,808.4338212199509,None,808.4338212199509,None,808.4338212199509,None,809.4391714660451,None,None,,809.4391714660451,None,809.4391714660451,None,809.4391714660451,None,811.4176383032463,None,4,2.5832259841263294,811.4176383032463,None,,,,,,,,,,,,,,,,,,,880818,1,2022_Mar_16_1548,encoding_smst,2021.1.2,59.976870061628205,
4,hercegnő,türelmes,FOIL,,,,,,,,,,,,,,,,,0,93,93,93,,,,,,,,,,,,,,,,,,,,,,,,,,,,,,,,,,,,,,,,,,,,,,,,,,,,,,,,,,,,,,,,,,,,,,,,,,,,,,,814.4235328109935,None,814.4235328109935,None,814.4235328109935,None,815.4381199530326,None,None,,815.4381199530326,None,815.4381199530326,None,815.4381199530326,None,817.4141749339178,None,4,1.094773659016937,817.4141749339178,None,,,,,,,,,,,,,,,,,,,880818,1,2022_Mar_16_1548,encoding_smst,2021.1.2,59.976870061628205,
78,szélvihar,hirtelen,TARG,,,,,,,,,,,,,,,,,0,94,94,94,,,,,,,,,,,,,,,,,,,,,,,,,,,,,,,,,,,,,,,,,,,,,,,,,,,,,,,,,,,,,,,,,,,,,,,,,,,,,,,820.4268696005456,None,820.4268696005456,None,820.4268696005456,None,821.4254682050087,None,2,1.8273624214343727,821.4254682050087,None,821.4254682050087,None,821.4254682050087,None,823.422270746436,None,4,0.6324216281063855,823.422270746436,None,,,,,,,,,,,,,,,,,,,880818,1,2022_Mar_16_1548,encoding_smst,2021.1.2,59.976870061628205,
9,barátnő,méltányos,DISTANT,,,,,,,,,,,,,,,,,0,95,95,95,,,,,,,,,,,,,,,,,,,,,,,,,,,,,,,,,,,,,,,,,,,,,,,,,,,,,,,,,,,,,,,,,,,,,,,,,,,,,,,826.4194265911356,None,826.4194265911356,None,826.4194265911356,None,827.4299945947714,None,None,,827.4299945947714,None,827.4299945947714,None,827.4299945947714,None,829.4252679166384,None,j,1.0923708220943809,829.4252679166384,None,,,,,,,,,,,,,,,,,,,880818,1,2022_Mar_16_1548,encoding_smst,2021.1.2,59.976870061628205,
92,újságcikk,botrányos,TARG,,,,,,,,,,,,,,,,,0,96,96,96,,,,,,,,,,,,,,,,,,,,,,,,,,,,,,,,,,,,,,,,,,,,,,,,,,,,,,,,,,,,,,,,,,,,,,,,,,,,,,,832.4240347757004,None,832.4240347757004,None,832.4240347757004,None,833.4313263250515,None,None,,833.4313263250515,None,833.4313263250515,None,833.4313263250515,None,835.4228657018393,None,j,0.7997214002534747,835.4228657018393,None,,,,,,,,,,,,,,,,,,,880818,1,2022_Mar_16_1548,encoding_smst,2021.1.2,59.976870061628205,
74,repülőjegy,érvényes,TARG,,,,,,,,,,,,,,,,,0,97,97,97,,,,,,,,,,,,,,,,,,,,,,,,,,,,,,,,,,,,,,,,,,,,,,,,,,,,,,,,,,,,,,,,,,,,,,,,,,,,,,,838.4248241102323,None,838.4248241102323,None,838.4248241102323,None,839.4265023018233,None,2,1.5839055334217846,839.4265023018233,None,839.4265023018233,None,839.4265023018233,None,841.420618057251,None,j,0.4289098037406802,841.420618057251,None,,,,,,,,,,,,,,,,,,,880818,1,2022_Mar_16_1548,encoding_smst,2021.1.2,59.976870061628205,
20,díszlet,császári,DISTANT,,,,,,,,,,,,,,,,,0,98,98,98,,,,,,,,,,,,,,,,,,,,,,,,,,,,,,,,,,,,,,,,,,,,,,,,,,,,,,,,,,,,,,,,,,,,,,,,,,,,,,,844.4224424217828,None,844.4224424217828,None,844.4224424217828,None,845.4288986073807,None,None,,845.4288986073807,None,845.4288986073807,None,845.4288986073807,None,847.4127940647304,None,j,0.8746195607818663,847.4127940647304,None,,,,,,,,,,,,,,,,,,,880818,1,2022_Mar_16_1548,encoding_smst,2021.1.2,59.976870061628205,
99,zeneszerző,nagyszerű,TARG,,,,,,,,,,,,,,,,,0,99,99,99,,,,,,,,,,,,,,,,,,,,,,,,,,,,,,,,,,,,,,,,,,,,,,,,,,,,,,,,,,,,,,,,,,,,,,,,,,,,,,,850.4262171089649,None,850.4262171089649,None,850.4262171089649,None,851.4397434070706,None,None,,851.4397434070706,None,851.4397434070706,None,851.4397434070706,None,853.4136275621131,None,j,0.8017581822350621,853.4136275621131,None,,,,,,,,,,,,,,,,,,,880818,1,2022_Mar_16_1548,encoding_smst,2021.1.2,59.976870061628205,
31,helyezés,változatlan,CLOSE,,,,,,,,,,,,,,,,,0,100,100,100,,,,,,,,,,,,,,,,,,,,,,,,,,,,,,,,,,,,,,,,,,,,,,,,,,,,,,,,,,,,,,,,,,,,,,,,,,,,,,,856.4231639569625,None,856.4231639569625,None,856.4231639569625,None,857.4367471695878,None,None,,857.4367471695878,None,857.4367471695878,None,857.4367471695878,None,859.4127063606866,None,j,1.0466030929237604,859.4127063606866,None,,,,,,,,,,,,,,,,,,,880818,1,2022_Mar_16_1548,encoding_smst,2021.1.2,59.976870061628205,
59,műalkotás,korabeli,TARG,,,,,,,,,,,,,,,,,0,101,101,101,,,,,,,,,,,,,,,,,,,,,,,,,,,,,,,,,,,,,,,,,,,,,,,,,,,,,,,,,,,,,,,,,,,,,,,,,,,,,,,862.4335926300846,None,862.4335926300846,None,862.4335926300846,None,863.4399166377261,None,2,1.7193619636818767,863.4399166377261,None,863.4399166377261,None,863.4399166377261,None,865.4129368164577,None,j,0.6102449921891093,865.4129368164577,None,,,,,,,,,,,,,,,,,,,880818,1,2022_Mar_16_1548,encoding_smst,2021.1.2,59.976870061628205,
27,párbeszéd,kötetlen,FOIL,,,,,,,,,,,,,,,,,0,102,102,102,,,,,,,,,,,,,,,,,,,,,,,,,,,,,,,,,,,,,,,,,,,,,,,,,,,,,,,,,,,,,,,,,,,,,,,,,,,,,,,868.4333845665678,None,868.4333845665678,None,868.4333845665678,None,869.4375616959296,None,None,,869.4375616959296,None,869.4375616959296,None,869.4375616959296,None,871.4176961504854,None,j,1.1844819532707334,871.4176961504854,None,,,,,,,,,,,,,,,,,,,880818,1,2022_Mar_16_1548,encoding_smst,2021.1.2,59.976870061628205,
13,bölcsőde,alkalmas,DISTANT,,,,,,,,,,,,,,,,,0,103,103,103,,,,,,,,,,,,,,,,,,,,,,,,,,,,,,,,,,,,,,,,,,,,,,,,,,,,,,,,,,,,,,,,,,,,,,,,,,,,,,,874.4268779978156,None,874.4268779978156,None,874.4268779978156,None,875.4360803714953,None,None,,875.4360803714953,None,875.4360803714953,None,875.4360803714953,None,877.4230324015953,None,j,1.1593740805983543,877.4230324015953,None,,,,,,,,,,,,,,,,,,,880818,1,2022_Mar_16_1548,encoding_smst,2021.1.2,59.976870061628205,
17,csomagolás,előzetes,DISTANT,,,,,,,,,,,,,,,,,0,104,104,104,,,,,,,,,,,,,,,,,,,,,,,,,,,,,,,,,,,,,,,,,,,,,,,,,,,,,,,,,,,,,,,,,,,,,,,,,,,,,,,880.4258317714557,None,880.4258317714557,None,880.4258317714557,None,881.4221441666596,None,None,,881.4221441666596,None,881.4221441666596,None,881.4221441666596,None,883.4333410258405,None,j,1.022638169117272,883.4333410258405,None,,,,,,,,,,,,,,,,,,,880818,1,2022_Mar_16_1548,encoding_smst,2021.1.2,59.976870061628205,
60,rosszullét,fizikai,FOIL,,,,,,,,,,,,,,,,,0,105,105,105,,,,,,,,,,,,,,,,,,,,,,,,,,,,,,,,,,,,,,,,,,,,,,,,,,,,,,,,,,,,,,,,,,,,,,,,,,,,,,,886.4233841500245,None,886.4233841500245,None,886.4233841500245,None,887.4243964762427,None,None,,887.4243964762427,None,887.4243964762427,None,887.4243964762427,None,889.4197292006575,None,4,1.5812252792529762,889.4197292006575,None,,,,,,,,,,,,,,,,,,,880818,1,2022_Mar_16_1548,encoding_smst,2021.1.2,59.976870061628205,
52,magazin,tudományos,TARG,,,,,,,,,,,,,,,,,0,106,106,106,,,,,,,,,,,,,,,,,,,,,,,,,,,,,,,,,,,,,,,,,,,,,,,,,,,,,,,,,,,,,,,,,,,,,,,,,,,,,,,892.4232513499446,None,892.4232513499446,None,892.4232513499446,None,893.4275793177076,None,None,,893.4275793177076,None,893.4275793177076,None,893.4275793177076,None,895.4325750162825,None,4,2.097583603579551,895.4325750162825,None,,,,,,,,,,,,,,,,,,,880818,1,2022_Mar_16_1548,encoding_smst,2021.1.2,59.976870061628205,
29,hangszer,tipikus,CLOSE,,,,,,,,,,,,,,,,,0,107,107,107,,,,,,,,,,,,,,,,,,,,,,,,,,,,,,,,,,,,,,,,,,,,,,,,,,,,,,,,,,,,,,,,,,,,,,,,,,,,,,,898.4231984787621,None,898.4231984787621,None,898.4231984787621,None,899.4395197937265,None,j,1.8323152014054358,899.4395197937265,None,899.4395197937265,None,899.4395197937265,None,901.4200619775802,None,4,0.3347102631814778,901.4200619775802,None,,,,,,,,,,,,,,,,,,,880818,1,2022_Mar_16_1548,encoding_smst,2021.1.2,59.976870061628205,
56,mikrofon,vezetékes,TARG,,,,,,,,,,,,,,,,,0,108,108,108,,,,,,,,,,,,,,,,,,,,,,,,,,,,,,,,,,,,,,,,,,,,,,,,,,,,,,,,,,,,,,,,,,,,,,,,,,,,,,,904.4293679166585,None,904.4293679166585,None,904.4293679166585,None,905.4318736963905,None,None,,905.4318736963905,None,905.4318736963905,None,905.4318736963905,None,907.4241106612608,None,j,0.9596493835560977,907.4241106612608,None,,,,,,,,,,,,,,,,,,,880818,1,2022_Mar_16_1548,encoding_smst,2021.1.2,59.976870061628205,
53,matrica,fizetős,TARG,,,,,,,,,,,,,,,,,0,109,109,109,,,,,,,,,,,,,,,,,,,,,,,,,,,,,,,,,,,,,,,,,,,,,,,,,,,,,,,,,,,,,,,,,,,,,,,,,,,,,,,910.4235440073535,None,910.4235440073535,None,910.4235440073535,None,911.425670048222,None,2,1.7429222674109042,911.425670048222,None,911.425670048222,None,911.425670048222,None,913.421194974333,None,j,0.4848374961875379,913.421194974333,None,,,,,,,,,,,,,,,,,,,880818,1,2022_Mar_16_1548,encoding_smst,2021.1.2,59.976870061628205,
18,diáklány,feltörekvő,DISTANT,,,,,,,,,,,,,,,,,0,110,110,110,,,,,,,,,,,,,,,,,,,,,,,,,,,,,,,,,,,,,,,,,,,,,,,,,,,,,,,,,,,,,,,,,,,,,,,,,,,,,,,916.4229593146592,None,916.4229593146592,None,916.4229593146592,None,917.4248213111423,None,None,,917.4248213111423,None,917.4248213111423,None,917.4248213111423,None,919.4179390463978,None,j,1.2986297672614455,919.4179390463978,None,,,,,,,,,,,,,,,,,,,880818,1,2022_Mar_16_1548,encoding_smst,2021.1.2,59.976870061628205,
99,államférfi,diszkrét,FOIL,,,,,,,,,,,,,,,,,0,111,111,111,,,,,,,,,,,,,,,,,,,,,,,,,,,,,,,,,,,,,,,,,,,,,,,,,,,,,,,,,,,,,,,,,,,,,,,,,,,,,,,922.4228218500502,None,922.4228218500502,None,922.4228218500502,None,923.4248760482296,None,None,,923.4248760482296,None,923.4248760482296,None,923.4248760482296,None,925.4209558102302,None,j,0.6575599792413414,925.4209558102302,None,,,,,,,,,,,,,,,,,,,880818,1,2022_Mar_16_1548,encoding_smst,2021.1.2,59.976870061628205,
82,szőnyeg,használati,TARG,,,,,,,,,,,,,,,,,0,112,112,112,,,,,,,,,,,,,,,,,,,,,,,,,,,,,,,,,,,,,,,,,,,,,,,,,,,,,,,,,,,,,,,,,,,,,,,,,,,,,,,928.4164350186475,None,928.4164350186475,None,928.4164350186475,None,929.4278906350955,None,j,1.8576118550263345,929.4278906350955,None,929.4278906350955,None,929.4278906350955,None,931.4066075216979,None,j,0.1289336890913546,931.4066075216979,None,,,,,,,,,,,,,,,,,,,880818,1,2022_Mar_16_1548,encoding_smst,2021.1.2,59.976870061628205,
90,tudomány,mérnöki,TARG,,,,,,,,,,,,,,,,,0,113,113,113,,,,,,,,,,,,,,,,,,,,,,,,,,,,,,,,,,,,,,,,,,,,,,,,,,,,,,,,,,,,,,,,,,,,,,,,,,,,,,,934.4253907641396,None,934.4253907641396,None,934.4253907641396,None,935.4281848473474,None,None,,935.4281848473474,None,935.4281848473474,None,935.4281848473474,None,937.4206662634388,None,j,1.1287769419141114,937.4206662634388,None,,,,,,,,,,,,,,,,,,,880818,1,2022_Mar_16_1548,encoding_smst,2021.1.2,59.976870061628205,
23,étterem,egyházi,DISTANT,,,,,,,,,,,,,,,,,0,114,114,114,,,,,,,,,,,,,,,,,,,,,,,,,,,,,,,,,,,,,,,,,,,,,,,,,,,,,,,,,,,,,,,,,,,,,,,,,,,,,,,940.4294798788615,None,940.4294798788615,None,940.4294798788615,None,941.4251052602194,None,j,1.7762708817608654,941.4251052602194,None,941.4251052602194,None,941.4251052602194,None,943.4312790520489,None,None,,943.4312790520489,None,,,,,,,,,,,,,,,,,,,880818,1,2022_Mar_16_1548,encoding_smst,2021.1.2,59.976870061628205,
22,egyenruha,méteres,DISTANT,,,,,,,,,,,,,,,,,0,115,115,115,,,,,,,,,,,,,,,,,,,,,,,,,,,,,,,,,,,,,,,,,,,,,,,,,,,,,,,,,,,,,,,,,,,,,,,,,,,,,,,946.4228946254589,None,946.4228946254589,None,946.4228946254589,None,947.4338128226809,None,None,,947.4338128226809,None,947.4338128226809,None,947.4338128226809,None,949.4190804408863,None,j,0.5830928734503686,949.4190804408863,None,,,,,,,,,,,,,,,,,,,880818,1,2022_Mar_16_1548,encoding_smst,2021.1.2,59.976870061628205,
83,gyűjtemény,sokszínű,FOIL,,,,,,,,,,,,,,,,,0,116,116,116,,,,,,,,,,,,,,,,,,,,,,,,,,,,,,,,,,,,,,,,,,,,,,,,,,,,,,,,,,,,,,,,,,,,,,,,,,,,,,,952.4302051463164,None,952.4302051463164,None,952.4302051463164,None,953.4239800386131,None,2,1.9122718842700124,953.4239800386131,None,953.4239800386131,None,953.4239800386131,None,955.4147098651156,None,j,1.3165260190144181,955.4147098651156,None,,,,,,,,,,,,,,,,,,,880818,1,2022_Mar_16_1548,encoding_smst,2021.1.2,59.976870061628205,
14,csecsemő,névtelen,DISTANT,,,,,,,,,,,,,,,,,0,117,117,117,,,,,,,,,,,,,,,,,,,,,,,,,,,,,,,,,,,,,,,,,,,,,,,,,,,,,,,,,,,,,,,,,,,,,,,,,,,,,,,958.4351800074801,None,958.4351800074801,None,958.4351800074801,None,959.4371175784618,None,None,,959.4371175784618,None,959.4371175784618,None,959.4371175784618,None,961.4103996250778,None,j,1.1960234073922038,961.4103996250778,None,,,,,,,,,,,,,,,,,,,880818,1,2022_Mar_16_1548,encoding_smst,2021.1.2,59.976870061628205,
51,levéltár,régészeti,TARG,,,,,,,,,,,,,,,,,0,118,118,118,,,,,,,,,,,,,,,,,,,,,,,,,,,,,,,,,,,,,,,,,,,,,,,,,,,,,,,,,,,,,,,,,,,,,,,,,,,,,,,964.4290180341341,None,964.4290180341341,None,964.4290180341341,None,965.4326493469998,None,2,1.9443270219489932,965.4326493469998,None,965.4326493469998,None,965.4326493469998,None,967.4293912420981,None,j,0.8226205040700734,967.4293912420981,None,,,,,,,,,,,,,,,,,,,880818,1,2022_Mar_16_1548,encoding_smst,2021.1.2,59.976870061628205,
53,végeredmény,lehetséges,FOIL,,,,,,,,,,,,,,,,,0,119,119,119,,,,,,,,,,,,,,,,,,,,,,,,,,,,,,,,,,,,,,,,,,,,,,,,,,,,,,,,,,,,,,,,,,,,,,,,,,,,,,,970.4226175188087,None,970.4226175188087,None,970.4226175188087,None,971.4357930016704,None,2,1.930281964596361,971.4357930016704,None,971.4357930016704,None,971.4357930016704,None,973.4219827540219,None,j,0.7559826779179275,973.4219827540219,None,,,,,,,,,,,,,,,,,,,880818,1,2022_Mar_16_1548,encoding_smst,2021.1.2,59.976870061628205,
10,barlang,korlátlan,DISTANT,,,,,,,,,,,,,,,,,0,120,120,120,,,,,,,,,,,,,,,,,,,,,,,,,,,,,,,,,,,,,,,,,,,,,,,,,,,,,,,,,,,,,,,,,,,,,,,,,,,,,,,976.4253444243222,None,976.4253444243222,None,976.4253444243222,None,977.4195662331767,None,None,,977.4195662331767,None,977.4195662331767,None,977.4195662331767,None,979.4205387504771,None,j,0.7163974489085376,979.4205387504771,None,,,,,,,,,,,,,,,,,,,880818,1,2022_Mar_16_1548,encoding_smst,2021.1.2,59.976870061628205,
41,királynő,gyönyörű,CLOSE,,,,,,,,,,,,,,,,,0,121,121,121,,,,,,,,,,,,,,,,,,,,,,,,,,,,,,,,,,,,,,,,,,,,,,,,,,,,,,,,,,,,,,,,,,,,,,,,,,,,,,,982.4224075893871,None,982.4224075893871,None,982.4224075893871,None,983.428953033872,None,j,1.929927728138864,983.428953033872,None,983.428953033872,None,983.428953033872,None,985.4173848326318,None,None,,985.4173848326318,None,,,,,,,,,,,,,,,,,,,880818,1,2022_Mar_16_1548,encoding_smst,2021.1.2,59.976870061628205,
12,rokonság,nagyszámú,FOIL,,,,,,,,,,,,,,,,,0,122,122,122,,,,,,,,,,,,,,,,,,,,,,,,,,,,,,,,,,,,,,,,,,,,,,,,,,,,,,,,,,,,,,,,,,,,,,,,,,,,,,,988.4321700860746,None,988.4321700860746,None,988.4321700860746,None,989.4275933131576,None,None,,989.4275933131576,None,989.4275933131576,None,989.4275933131576,None,991.4212263859808,None,4,1.4679134506732225,991.4212263859808,None,,,,,,,,,,,,,,,,,,,880818,1,2022_Mar_16_1548,encoding_smst,2021.1.2,59.976870061628205,
103,forgatás,életveszélyes,FOIL,,,,,,,,,,,,,,,,,0,123,123,123,,,,,,,,,,,,,,,,,,,,,,,,,,,,,,,,,,,,,,,,,,,,,,,,,,,,,,,,,,,,,,,,,,,,,,,,,,,,,,,994.414458882995,None,994.414458882995,None,994.414458882995,None,995.4268018011935,None,None,,995.4268018011935,None,995.4268018011935,None,995.4268018011935,None,997.4331547329202,None,4,1.2608679695986211,997.4331547329202,None,,,,,,,,,,,,,,,,,,,880818,1,2022_Mar_16_1548,encoding_smst,2021.1.2,59.976870061628205,
75,sütemény,születésnapi,TARG,,,,,,,,,,,,,,,,,0,124,124,124,,,,,,,,,,,,,,,,,,,,,,,,,,,,,,,,,,,,,,,,,,,,,,,,,,,,,,,,,,,,,,,,,,,,,,,,,,,,,,,1000.4231431195512,None,1000.4231431195512,None,1000.4231431195512,None,1001.4266077331267,None,None,,1001.4266077331267,None,1001.4266077331267,None,1001.4266077331267,None,1003.4211228210479,None,j,0.8955677207559347,1003.4211228210479,None,,,,,,,,,,,,,,,,,,,880818,1,2022_Mar_16_1548,encoding_smst,2021.1.2,59.976870061628205,
,,,,,,,,,,,,,,,,,,,,,,,,,,,,,,,,,,,,,,,,,,,,,,,,,,,,,,,,,,,,,,,,,,,,,,,,,,,,,,,,,,,,,,,,,,,,,,,,,,,,,,,,,,,,,,,,,,,,,,,,,,,,,,,,,,,,,,1006.4191740537062,None,1011.4151735762134,None,4,9.937218033708632,1011.4151735762134,None,880818,1,2022_Mar_16_1548,encoding_smst,2021.1.2,59.976870061628205,
