"trial_type","trial_index","time_elapsed","internal_node_id","rt","responses","success","stimulus","key_press","cond","enc_response","condition","correct_response","correct","rec_response","targ_old","targ_sim","targ_new","lure_old","lure_sim","lure_new","foil_old","foil_sim","foil_new","recognition_ratio","ldi"
"pavlovia","0","3","0.0-0.0","","","","","","","","","","","","","","","","","","","","","",""
"survey-multi-choice","1","4610","0.0-1.0","4604.700000286102","{""Q0"":""Igen"",""Q1"":""Igen""}","","","","","","","","","","","","","","","","","","","",""
"survey-text","2","20140","0.0-2.0-0.0","15527.099999904633","{""Q0"":""341753""}","","","","","","","","","","","","","","","","","","","",""
"fullscreen","3","23508","0.0-2.0-1.0","","","true","","","","","","","","","","","","","","","","","","",""
"html-keyboard-response","4","29148","0.0-2.0-2.0","5638.099999904633","","","<p>Üdvözöljük! Ez a feladat két részből áll, és összesen 10-15 percet vesz igénybe.</p>","32","","","","","","","","","","","","","","","","",""
"html-keyboard-response","5","63515","0.0-2.0-3.0-0.0","34366.39999961853","","","<p>Az első részben tárgyakat lát majd a képernyőn, egymás után fognak megjelenni.<br>Az Ön feladata eldönteni, hogy a tárgyak <i>beltéri vagy kültéri</i> tárgyak-e.</p>						   <p>Amennyiben a tárgyat általában beltéren látja, nyomja le a <b>C</b> billentyűt. Amennyiben a tárgyat általában kültéren látja, nyomja le az <b>M</b> billentyűt.</p>						   <p>Ebben a feladatban nincsen mindig egyértelműen jó megoldás. Válaszoljon legjobb tudása szerint. A válaszadásra 2 másodperce lesz.","32","","","","","","","","","","","","","","","","",""
"html-keyboard-response","6","65517","0.0-2.0-3.0-1.0","null","","","<p>Kezdődik a gyakorlás...</p>","null","","","","","","","","","","","","","","","","",""
"image-keyboard-response","7","67522","0.0-2.0-4.0-0.0","1146.5","","","stimuli/Set_2_rs/165b.jpg","77","-","outdoor","","","","","","","","","","","","","","",""
"html-keyboard-response","8","70187","0.0-2.0-4.0-1.0","2162.7999997138977","","","<p>Az Ön válasza:</p><p>Kültéri.</p>","32","","","","","","","","","","","","","","","","",""
"image-keyboard-response","9","72189","0.0-2.0-4.0-0.1","989.8999996185303","","","stimuli/Set_2_rs/034a.jpg","67","-","indoor","","","","","","","","","","","","","","",""
"html-keyboard-response","10","73755","0.0-2.0-4.0-1.1","1063.0999999046326","","","<p>Az Ön válasza:</p><p>Beltéri.</p>","32","","","","","","","","","","","","","","","","",""
"image-keyboard-response","11","75757","0.0-2.0-4.0-0.2","766.0999999046326","","","stimuli/Set_2_rs/049a.jpg","77","SL","outdoor","","","","","","","","","","","","","","",""
"html-keyboard-response","12","77034","0.0-2.0-4.0-1.2","775.5999999046326","","","<p>Az Ön válasza:</p><p>Kültéri.</p>","32","","","","","","","","","","","","","","","","",""
"image-keyboard-response","13","79037","0.0-2.0-4.0-0.3","766.5","","","stimuli/Set_2_rs/028a.jpg","67","SR","indoor","","","","","","","","","","","","","","",""
"html-keyboard-response","14","80330","0.0-2.0-4.0-1.3","791.4000000953674","","","<p>Az Ön válasza:</p><p>Beltéri.</p>","32","","","","","","","","","","","","","","","","",""
"image-keyboard-response","15","82333","0.0-2.0-4.0-0.4","654.0999999046326","","","stimuli/Set_2_rs/135a.jpg","67","SL","indoor","","","","","","","","","","","","","","",""
"html-keyboard-response","16","83450","0.0-2.0-4.0-1.4","615.1999998092651","","","<p>Az Ön válasza:</p><p>Beltéri.</p>","32","","","","","","","","","","","","","","","","",""
"image-keyboard-response","17","85453","0.0-2.0-4.0-0.5","654.0999999046326","","","stimuli/Set_2_rs/137a.jpg","67","SR","indoor","","","","","","","","","","","","","","",""
"html-keyboard-response","18","86554","0.0-2.0-4.0-1.5","599.0999999046326","","","<p>Az Ön válasza:</p><p>Beltéri.</p>","32","","","","","","","","","","","","","","","","",""
"html-keyboard-response","19","111306","0.0-2.0-5.0-0.0","24750.700000286102","","","<p>Ez volt a gyakorlás. A feladat következik. A feladat alatt már nem kap visszajelzést.</p>","32","","","","","","","","","","","","","","","","",""
"html-keyboard-response","20","113308","0.0-2.0-5.0-1.0","null","","","<p>Kezdődik a feladat...</p>","null","","","","","","","","","","","","","","","","",""
"image-keyboard-response","21","115811","0.0-2.0-6.0-0.0","795.6999998092651","","","stimuli/Set_1_rs/157a.jpg","67","","indoor","SR","","","","","","","","","","","","","",""
"image-keyboard-response","22","118313","0.0-2.0-6.0-0.1","869.6999998092651","","","stimuli/Set_1_rs/009a.jpg","67","","indoor","SR","","","","","","","","","","","","","",""
"image-keyboard-response","23","120814","0.0-2.0-6.0-0.2","1055.8000001907349","","","stimuli/Set_1_rs/059a.jpg","67","","indoor","SL","","","","","","","","","","","","","",""
"image-keyboard-response","24","123316","0.0-2.0-6.0-0.3","922.3000001907349","","","stimuli/Set_1_rs/024a.jpg","67","","indoor","SR","","","","","","","","","","","","","",""
"image-keyboard-response","25","125819","0.0-2.0-6.0-0.4","1171.4000000953674","","","stimuli/Set_1_rs/101a.jpg","77","","outdoor","SL","","","","","","","","","","","","","",""
"image-keyboard-response","26","128322","0.0-2.0-6.0-0.5","1437.5999999046326","","","stimuli/Set_1_rs/137a.jpg","77","","outdoor","SR","","","","","","","","","","","","","",""
"image-keyboard-response","27","130823","0.0-2.0-6.0-0.6","1463.4000000953674","","","stimuli/Set_1_rs/011a.jpg","67","","indoor","SL","","","","","","","","","","","","","",""
"image-keyboard-response","28","133325","0.0-2.0-6.0-0.7","1745.9000000953674","","","stimuli/Set_1_rs/128a.jpg","67","","indoor","SL","","","","","","","","","","","","","",""
"image-keyboard-response","29","135828","0.0-2.0-6.0-0.8","1051.1000003814697","","","stimuli/Set_1_rs/083a.jpg","67","","indoor","SL","","","","","","","","","","","","","",""
"image-keyboard-response","30","138330","0.0-2.0-6.0-0.9","980.8000001907349","","","stimuli/Set_1_rs/136a.jpg","67","","indoor","SR","","","","","","","","","","","","","",""
"image-keyboard-response","31","140831","0.0-2.0-6.0-0.10","959.3000001907349","","","stimuli/Set_1_rs/103a.jpg","67","","indoor","SL","","","","","","","","","","","","","",""
"image-keyboard-response","32","143333","0.0-2.0-6.0-0.11","745.6999998092651","","","stimuli/Set_1_rs/086a.jpg","67","","indoor","SR","","","","","","","","","","","","","",""
"image-keyboard-response","33","145835","0.0-2.0-6.0-0.12","995.4000000953674","","","stimuli/Set_1_rs/099a.jpg","77","","outdoor","SL","","","","","","","","","","","","","",""
"image-keyboard-response","34","148338","0.0-2.0-6.0-0.13","941.4000000953674","","","stimuli/Set_1_rs/178a.jpg","67","","indoor","SL","","","","","","","","","","","","","",""
"image-keyboard-response","35","150840","0.0-2.0-6.0-0.14","870.5","","","stimuli/Set_1_rs/134a.jpg","67","","indoor","SL","","","","","","","","","","","","","",""
"image-keyboard-response","36","153342","0.0-2.0-6.0-0.15","736.5999999046326","","","stimuli/Set_1_rs/156a.jpg","67","","indoor","SL","","","","","","","","","","","","","",""
"image-keyboard-response","37","155845","0.0-2.0-6.0-0.16","841.6999998092651","","","stimuli/Set_1_rs/054a.jpg","77","","outdoor","SR","","","","","","","","","","","","","",""
"image-keyboard-response","38","158347","0.0-2.0-6.0-0.17","1315.7999997138977","","","stimuli/Set_1_rs/092a.jpg","77","","outdoor","SL","","","","","","","","","","","","","",""
"image-keyboard-response","39","160849","0.0-2.0-6.0-0.18","1038","","","stimuli/Set_1_rs/031a.jpg","67","","indoor","SL","","","","","","","","","","","","","",""
"image-keyboard-response","40","163351","0.0-2.0-6.0-0.19","1095.6999998092651","","","stimuli/Set_1_rs/013a.jpg","67","","indoor","SL","","","","","","","","","","","","","",""
"image-keyboard-response","41","165853","0.0-2.0-6.0-0.20","881.3000001907349","","","stimuli/Set_1_rs/075a.jpg","67","","indoor","SL","","","","","","","","","","","","","",""
"image-keyboard-response","42","168355","0.0-2.0-6.0-0.21","1211.5999999046326","","","stimuli/Set_1_rs/150a.jpg","67","","indoor","SR","","","","","","","","","","","","","",""
"image-keyboard-response","43","170857","0.0-2.0-6.0-0.22","933.5999999046326","","","stimuli/Set_1_rs/094a.jpg","67","","indoor","SL","","","","","","","","","","","","","",""
"image-keyboard-response","44","173358","0.0-2.0-6.0-0.23","704","","","stimuli/Set_1_rs/090a.jpg","77","","outdoor","SL","","","","","","","","","","","","","",""
"image-keyboard-response","45","175861","0.0-2.0-6.0-0.24","1033.5","","","stimuli/Set_1_rs/192a.jpg","77","","outdoor","SR","","","","","","","","","","","","","",""
"image-keyboard-response","46","178363","0.0-2.0-6.0-0.25","1107.2000002861023","","","stimuli/Set_1_rs/116a.jpg","67","","indoor","SL","","","","","","","","","","","","","",""
"image-keyboard-response","47","180865","0.0-2.0-6.0-0.26","973.5","","","stimuli/Set_1_rs/044a.jpg","67","","indoor","SR","","","","","","","","","","","","","",""
"image-keyboard-response","48","183367","0.0-2.0-6.0-0.27","1239.1999998092651","","","stimuli/Set_1_rs/114a.jpg","67","","indoor","SL","","","","","","","","","","","","","",""
"image-keyboard-response","49","185870","0.0-2.0-6.0-0.28","1216.8999996185303","","","stimuli/Set_1_rs/112a.jpg","67","","indoor","SR","","","","","","","","","","","","","",""
"image-keyboard-response","50","188371","0.0-2.0-6.0-0.29","986.6999998092651","","","stimuli/Set_1_rs/052a.jpg","67","","indoor","SL","","","","","","","","","","","","","",""
"image-keyboard-response","51","190873","0.0-2.0-6.0-0.30","1285.5","","","stimuli/Set_1_rs/058a.jpg","67","","indoor","SR","","","","","","","","","","","","","",""
"image-keyboard-response","52","193375","0.0-2.0-6.0-0.31","911.1999998092651","","","stimuli/Set_1_rs/023a.jpg","77","","outdoor","SL","","","","","","","","","","","","","",""
"image-keyboard-response","53","195878","0.0-2.0-6.0-0.32","1048.2999997138977","","","stimuli/Set_1_rs/030a.jpg","77","","outdoor","SR","","","","","","","","","","","","","",""
"image-keyboard-response","54","198380","0.0-2.0-6.0-0.33","994","","","stimuli/Set_1_rs/091a.jpg","77","","outdoor","SR","","","","","","","","","","","","","",""
"image-keyboard-response","55","200882","0.0-2.0-6.0-0.34","1308.6999998092651","","","stimuli/Set_1_rs/147a.jpg","67","","indoor","SR","","","","","","","","","","","","","",""
"image-keyboard-response","56","203384","0.0-2.0-6.0-0.35","1046.0999999046326","","","stimuli/Set_1_rs/063a.jpg","77","","outdoor","SR","","","","","","","","","","","","","",""
"image-keyboard-response","57","205887","0.0-2.0-6.0-0.36","879.4000000953674","","","stimuli/Set_1_rs/040a.jpg","77","","outdoor","SR","","","","","","","","","","","","","",""
"image-keyboard-response","58","208389","0.0-2.0-6.0-0.37","793.4000000953674","","","stimuli/Set_1_rs/038a.jpg","67","","indoor","SR","","","","","","","","","","","","","",""
"image-keyboard-response","59","210891","0.0-2.0-6.0-0.38","691.5","","","stimuli/Set_1_rs/100a.jpg","67","","indoor","SL","","","","","","","","","","","","","",""
"image-keyboard-response","60","213393","0.0-2.0-6.0-0.39","893.1999998092651","","","stimuli/Set_1_rs/109a.jpg","67","","indoor","SR","","","","","","","","","","","","","",""
"image-keyboard-response","61","215895","0.0-2.0-6.0-0.40","982.4000000953674","","","stimuli/Set_1_rs/191a.jpg","67","","indoor","SR","","","","","","","","","","","","","",""
"image-keyboard-response","62","218398","0.0-2.0-6.0-0.41","1040.8000001907349","","","stimuli/Set_1_rs/061a.jpg","77","","outdoor","SL","","","","","","","","","","","","","",""
"image-keyboard-response","63","220899","0.0-2.0-6.0-0.42","986.5","","","stimuli/Set_1_rs/162a.jpg","77","","outdoor","SR","","","","","","","","","","","","","",""
"image-keyboard-response","64","223401","0.0-2.0-6.0-0.43","965.2000002861023","","","stimuli/Set_1_rs/046a.jpg","77","","outdoor","SR","","","","","","","","","","","","","",""
"image-keyboard-response","65","225903","0.0-2.0-6.0-0.44","1134.5","","","stimuli/Set_1_rs/155a.jpg","77","","outdoor","SL","","","","","","","","","","","","","",""
"image-keyboard-response","66","228405","0.0-2.0-6.0-0.45","1401.1999998092651","","","stimuli/Set_1_rs/010a.jpg","77","","outdoor","SR","","","","","","","","","","","","","",""
"image-keyboard-response","67","230907","0.0-2.0-6.0-0.46","1363","","","stimuli/Set_1_rs/142a.jpg","67","","indoor","SR","","","","","","","","","","","","","",""
"image-keyboard-response","68","233409","0.0-2.0-6.0-0.47","925.2999997138977","","","stimuli/Set_1_rs/045a.jpg","67","","indoor","SL","","","","","","","","","","","","","",""
"image-keyboard-response","69","235912","0.0-2.0-6.0-0.48","1334.7000002861023","","","stimuli/Set_1_rs/070a.jpg","67","","indoor","SR","","","","","","","","","","","","","",""
"image-keyboard-response","70","238414","0.0-2.0-6.0-0.49","1055.8000001907349","","","stimuli/Set_1_rs/022a.jpg","67","","indoor","SL","","","","","","","","","","","","","",""
"image-keyboard-response","71","240915","0.0-2.0-6.0-0.50","1385.7999997138977","","","stimuli/Set_1_rs/021a.jpg","67","","indoor","SR","","","","","","","","","","","","","",""
"image-keyboard-response","72","243418","0.0-2.0-6.0-0.51","996.4000000953674","","","stimuli/Set_1_rs/098a.jpg","67","","indoor","SL","","","","","","","","","","","","","",""
"image-keyboard-response","73","245920","0.0-2.0-6.0-0.52","716.9000000953674","","","stimuli/Set_1_rs/008a.jpg","67","","indoor","SL","","","","","","","","","","","","","",""
"image-keyboard-response","74","248423","0.0-2.0-6.0-0.53","1063.3999996185303","","","stimuli/Set_1_rs/012a.jpg","67","","indoor","SL","","","","","","","","","","","","","",""
"image-keyboard-response","75","250924","0.0-2.0-6.0-0.54","769.1999998092651","","","stimuli/Set_1_rs/153a.jpg","67","","indoor","SR","","","","","","","","","","","","","",""
"image-keyboard-response","76","253425","0.0-2.0-6.0-0.55","955.8000001907349","","","stimuli/Set_1_rs/068a.jpg","77","","outdoor","SL","","","","","","","","","","","","","",""
"image-keyboard-response","77","255928","0.0-2.0-6.0-0.56","725.8000001907349","","","stimuli/Set_1_rs/140a.jpg","67","","indoor","SL","","","","","","","","","","","","","",""
"image-keyboard-response","78","258429","0.0-2.0-6.0-0.57","895.7000002861023","","","stimuli/Set_1_rs/029a.jpg","67","","indoor","SR","","","","","","","","","","","","","",""
"image-keyboard-response","79","260931","0.0-2.0-6.0-0.58","922.4000000953674","","","stimuli/Set_1_rs/049a.jpg","67","","indoor","SR","","","","","","","","","","","","","",""
"image-keyboard-response","80","263432","0.0-2.0-6.0-0.59","869","","","stimuli/Set_1_rs/180a.jpg","67","","indoor","SR","","","","","","","","","","","","","",""
"image-keyboard-response","81","265934","0.0-2.0-6.0-0.60","750.8000001907349","","","stimuli/Set_1_rs/033a.jpg","67","","indoor","SL","","","","","","","","","","","","","",""
"image-keyboard-response","82","268436","0.0-2.0-6.0-0.61","1385.2000002861023","","","stimuli/Set_1_rs/119a.jpg","77","","outdoor","SL","","","","","","","","","","","","","",""
"image-keyboard-response","83","270939","0.0-2.0-6.0-0.62","1411.7000002861023","","","stimuli/Set_1_rs/118a.jpg","77","","outdoor","SR","","","","","","","","","","","","","",""
"image-keyboard-response","84","273440","0.0-2.0-6.0-0.63","924.8999996185303","","","stimuli/Set_1_rs/107a.jpg","77","","outdoor","SR","","","","","","","","","","","","","",""
"html-keyboard-response","85","277337","0.0-2.0-7.0","3895.8999996185303","","","<p>Vége a feladat első részének. Tartson egy pár perces szünetet.</p>","32","","","","","","","","","","","","","","","","",""
"html-keyboard-response","86","311464","0.0-2.0-8.0-0.0","34127","","","<p>A következőkben ismét tárgyak jelennek majd meg a képernyőn, egymás után.<br>Az Ön feladata eldönteni, látta-e már ezeket a tárgyakat a vizsgálat első felében.</p>		        			<p>Amennyiben pontosan ugyanezt a tárgyat látta (a tárgy <i>régi</i>), nyomja le a <b>C</b> billentyűt.</p>		        			<p>Amennyiben hasonló tárgyat látott (a tárgy <i>hasonló</i>), nyomja le a <b>B</b> billentyűt.</p>		        			<p>Amennyiben nem látta ezt a tárgyat az első részben (a tárgy <i>új</i>), nyomja le az <b>M</b> billentyűt.</p>","32","","","","","","","","","","","","","","","","",""
"html-keyboard-response","87","313465","0.0-2.0-8.0-1.0","null","","","<p>Kezdődik a gyakorlás...</p>","null","","","","","","","","","","","","","","","","",""
"image-keyboard-response","88","317468","0.0-2.0-9.0-0.0","3436.5999999046326","","","stimuli/Set_2_rs/049b.jpg","77","","","TL","l","false","n","","","","","","","","","","",""
"html-keyboard-response","89","322967","0.0-2.0-9.0-1.0","5497.700000286102","","","<p>A helyes válasz: Hasonló.</p><p>Az Ön válasza: Új.</p>","32","","","","","","","","","","","","","","","","",""
"image-keyboard-response","90","326971","0.0-2.0-9.0-0.1","1229.7999997138977","","","stimuli/Set_2_rs/018b.jpg","77","","","TF","n","true","n","","","","","","","","","","",""
"html-keyboard-response","91","332247","0.0-2.0-9.0-1.1","5275.099999904633","","","<p>A helyes válasz: Új.</p><p>Az Ön válasza: Új.</p>","32","","","","","","","","","","","","","","","","",""
"image-keyboard-response","92","336250","0.0-2.0-9.0-0.2","1901.8999996185303","","","stimuli/Set_2_rs/028a.jpg","67","","","TR","o","true","o","","","","","","","","","","",""
"html-keyboard-response","93","337799","0.0-2.0-9.0-1.2","1547.6999998092651","","","<p>A helyes válasz: Régi.</p><p>Az Ön válasza: Régi.</p>","32","","","","","","","","","","","","","","","","",""
"image-keyboard-response","94","341802","0.0-2.0-9.0-0.3","1070.0999999046326","","","stimuli/Set_2_rs/137a.jpg","67","","","TR","o","true","o","","","","","","","","","","",""
"html-keyboard-response","95","343191","0.0-2.0-9.0-1.3","1387.5999999046326","","","<p>A helyes válasz: Régi.</p><p>Az Ön válasza: Régi.</p>","32","","","","","","","","","","","","","","","","",""
"image-keyboard-response","96","347193","0.0-2.0-9.0-0.4","1806.4000000953674","","","stimuli/Set_2_rs/135b.jpg","67","","","TL","l","false","o","","","","","","","","","","",""
"html-keyboard-response","97","354839","0.0-2.0-9.0-1.4","7644.200000286102","","","<p>A helyes válasz: Hasonló.</p><p>Az Ön válasza: Régi.</p>","32","","","","","","","","","","","","","","","","",""
"image-keyboard-response","98","358841","0.0-2.0-9.0-0.5","1309.9000000953674","","","stimuli/Set_2_rs/019a.jpg","77","","","TF","n","true","n","","","","","","","","","","",""
"html-keyboard-response","99","359991","0.0-2.0-9.0-1.5","1148.1000003814697","","","<p>A helyes válasz: Új.</p><p>Az Ön válasza: Új.</p>","32","","","","","","","","","","","","","","","","",""
"html-keyboard-response","100","377351","0.0-2.0-10.0-0.0","17359.099999904633","","","<p>Ez volt a gyakorlás. A feladat következik. A feladat alatt már nem kap visszajelzést.</p>","32","","","","","","","","","","","","","","","","",""
"html-keyboard-response","101","379353","0.0-2.0-10.0-1.0","null","","","<p>Kezdődik a feladat...</p>","null","","","","","","","","","","","","","","","","",""
"image-keyboard-response","102","383856","0.0-2.0-11.0-0.0","1739.5999999046326","","","stimuli/Set_1_rs/181a.jpg","77","","","TF","n","true","n","","","","","","","","","","",""
"image-keyboard-response","103","388359","0.0-2.0-11.0-0.1","964.5999999046326","","","stimuli/Set_1_rs/152a.jpg","77","","","TF","n","true","n","","","","","","","","","","",""
"image-keyboard-response","104","392862","0.0-2.0-11.0-0.2","1517.5","","","stimuli/Set_1_rs/090b.jpg","77","","","TL","s","false","n","","","","","","","","","","",""
"image-keyboard-response","105","397365","0.0-2.0-11.0-0.3","918.7000002861023","","","stimuli/Set_1_rs/126a.jpg","77","","","TF","n","true","n","","","","","","","","","","",""
"image-keyboard-response","106","401868","0.0-2.0-11.0-0.4","1487.9000000953674","","","stimuli/Set_1_rs/068b.jpg","67","","","TL","s","false","o","","","","","","","","","","",""
"image-keyboard-response","107","406370","0.0-2.0-11.0-0.5","1720.9000000953674","","","stimuli/Set_1_rs/054a.jpg","67","","","TR","o","true","o","","","","","","","","","","",""
"image-keyboard-response","108","410874","0.0-2.0-11.0-0.6","1073.8999996185303","","","stimuli/Set_1_rs/162a.jpg","67","","","TR","o","true","o","","","","","","","","","","",""
"image-keyboard-response","109","415377","0.0-2.0-11.0-0.7","1210.5","","","stimuli/Set_1_rs/019a.jpg","77","","","TF","n","true","n","","","","","","","","","","",""
"image-keyboard-response","110","419879","0.0-2.0-11.0-0.8","1715.8999996185303","","","stimuli/Set_1_rs/119b.jpg","66","","","TL","s","true","s","","","","","","","","","","",""
"image-keyboard-response","111","424382","0.0-2.0-11.0-0.9","1453.2999997138977","","","stimuli/Set_1_rs/052b.jpg","66","","","TL","s","true","s","","","","","","","","","","",""
"image-keyboard-response","112","428886","0.0-2.0-11.0-0.10","1254.2999997138977","","","stimuli/Set_1_rs/135a.jpg","77","","","TF","n","true","n","","","","","","","","","","",""
"image-keyboard-response","113","433389","0.0-2.0-11.0-0.11","974.6999998092651","","","stimuli/Set_1_rs/004a.jpg","77","","","TF","n","true","n","","","","","","","","","","",""
"image-keyboard-response","114","437892","0.0-2.0-11.0-0.12","1847.0999999046326","","","stimuli/Set_1_rs/072a.jpg","77","","","TF","n","true","n","","","","","","","","","","",""
"image-keyboard-response","115","442396","0.0-2.0-11.0-0.13","1135.8000001907349","","","stimuli/Set_1_rs/028a.jpg","77","","","TF","n","true","n","","","","","","","","","","",""
"image-keyboard-response","116","446899","0.0-2.0-11.0-0.14","1640.2000002861023","","","stimuli/Set_1_rs/091a.jpg","67","","","TR","o","true","o","","","","","","","","","","",""
"image-keyboard-response","117","451402","0.0-2.0-11.0-0.15","1089.8000001907349","","","stimuli/Set_1_rs/108a.jpg","77","","","TF","n","true","n","","","","","","","","","","",""
"image-keyboard-response","118","455905","0.0-2.0-11.0-0.16","1546.3999996185303","","","stimuli/Set_1_rs/146a.jpg","77","","","TF","n","true","n","","","","","","","","","","",""
"image-keyboard-response","119","460409","0.0-2.0-11.0-0.17","1571","","","stimuli/Set_1_rs/013b.jpg","66","","","TL","s","true","s","","","","","","","","","","",""
"image-keyboard-response","120","464912","0.0-2.0-11.0-0.18","1563.2999997138977","","","stimuli/Set_1_rs/141a.jpg","77","","","TF","n","true","n","","","","","","","","","","",""
"image-keyboard-response","121","469416","0.0-2.0-11.0-0.19","1444","","","stimuli/Set_1_rs/156b.jpg","66","","","TL","s","true","s","","","","","","","","","","",""
"image-keyboard-response","122","473918","0.0-2.0-11.0-0.20","1789.0999999046326","","","stimuli/Set_1_rs/024a.jpg","67","","","TR","o","true","o","","","","","","","","","","",""
"image-keyboard-response","123","478421","0.0-2.0-11.0-0.21","1557.5999999046326","","","stimuli/Set_1_rs/046a.jpg","67","","","TR","o","true","o","","","","","","","","","","",""
"image-keyboard-response","124","482925","0.0-2.0-11.0-0.22","1294.6000003814697","","","stimuli/Set_1_rs/100b.jpg","67","","","TL","s","false","o","","","","","","","","","","",""
"image-keyboard-response","125","487429","0.0-2.0-11.0-0.23","1063.2000002861023","","","stimuli/Set_1_rs/080a.jpg","77","","","TF","n","true","n","","","","","","","","","","",""
"image-keyboard-response","126","491931","0.0-2.0-11.0-0.24","1295.2000002861023","","","stimuli/Set_1_rs/094b.jpg","66","","","TL","s","true","s","","","","","","","","","","",""
"image-keyboard-response","127","496434","0.0-2.0-11.0-0.25","1128.2999997138977","","","stimuli/Set_1_rs/190a.jpg","77","","","TF","n","true","n","","","","","","","","","","",""
"image-keyboard-response","128","500937","0.0-2.0-11.0-0.26","2945.9000000953674","","","stimuli/Set_1_rs/137a.jpg","67","","","TR","o","true","o","","","","","","","","","","",""
"image-keyboard-response","129","505439","0.0-2.0-11.0-0.27","1435.0999999046326","","","stimuli/Set_1_rs/180a.jpg","67","","","TR","o","true","o","","","","","","","","","","",""
"image-keyboard-response","130","509943","0.0-2.0-11.0-0.28","2068.7999997138977","","","stimuli/Set_1_rs/134b.jpg","66","","","TL","s","true","s","","","","","","","","","","",""
"image-keyboard-response","131","514445","0.0-2.0-11.0-0.29","1245.5","","","stimuli/Set_1_rs/088a.jpg","77","","","TF","n","true","n","","","","","","","","","","",""
"image-keyboard-response","132","518948","0.0-2.0-11.0-0.30","1270.6999998092651","","","stimuli/Set_1_rs/165a.jpg","77","","","TF","n","true","n","","","","","","","","","","",""
"image-keyboard-response","133","523451","0.0-2.0-11.0-0.31","1727.5","","","stimuli/Set_1_rs/075b.jpg","66","","","TL","s","true","s","","","","","","","","","","",""
"image-keyboard-response","134","527955","0.0-2.0-11.0-0.32","1159.0999999046326","","","stimuli/Set_1_rs/191a.jpg","67","","","TR","o","true","o","","","","","","","","","","",""
"image-keyboard-response","135","532459","0.0-2.0-11.0-0.33","1871.9000000953674","","","stimuli/Set_1_rs/112a.jpg","67","","","TR","o","true","o","","","","","","","","","","",""
"image-keyboard-response","136","536962","0.0-2.0-11.0-0.34","1064.6000003814697","","","stimuli/Set_1_rs/171a.jpg","77","","","TF","n","true","n","","","","","","","","","","",""
"image-keyboard-response","137","541465","0.0-2.0-11.0-0.35","1585.0999999046326","","","stimuli/Set_1_rs/021a.jpg","67","","","TR","o","true","o","","","","","","","","","","",""
"image-keyboard-response","138","545969","0.0-2.0-11.0-0.36","1433.8999996185303","","","stimuli/Set_1_rs/157a.jpg","67","","","TR","o","true","o","","","","","","","","","","",""
"image-keyboard-response","139","550472","0.0-2.0-11.0-0.37","1522.5","","","stimuli/Set_1_rs/059b.jpg","66","","","TL","s","true","s","","","","","","","","","","",""
"image-keyboard-response","140","554974","0.0-2.0-11.0-0.38","2171.800000190735","","","stimuli/Set_1_rs/153a.jpg","66","","","TR","o","false","s","","","","","","","","","","",""
"image-keyboard-response","141","559477","0.0-2.0-11.0-0.39","1141.0999999046326","","","stimuli/Set_1_rs/002a.jpg","77","","","TF","n","true","n","","","","","","","","","","",""
"image-keyboard-response","142","563980","0.0-2.0-11.0-0.40","1214.4000000953674","","","stimuli/Set_1_rs/041a.jpg","77","","","TF","n","true","n","","","","","","","","","","",""
"image-keyboard-response","143","568483","0.0-2.0-11.0-0.41","1654.9000000953674","","","stimuli/Set_1_rs/012b.jpg","66","","","TL","s","true","s","","","","","","","","","","",""
"image-keyboard-response","144","572986","0.0-2.0-11.0-0.42","2079.9000000953674","","","stimuli/Set_1_rs/083b.jpg","66","","","TL","s","true","s","","","","","","","","","","",""
"image-keyboard-response","145","577489","0.0-2.0-11.0-0.43","1064.9000000953674","","","stimuli/Set_1_rs/051a.jpg","77","","","TF","n","true","n","","","","","","","","","","",""
"image-keyboard-response","146","581993","0.0-2.0-11.0-0.44","1665.7000002861023","","","stimuli/Set_1_rs/168a.jpg","77","","","TF","n","true","n","","","","","","","","","","",""
"image-keyboard-response","147","586496","0.0-2.0-11.0-0.45","1674.1999998092651","","","stimuli/Set_1_rs/155b.jpg","66","","","TL","s","true","s","","","","","","","","","","",""
"image-keyboard-response","148","591000","0.0-2.0-11.0-0.46","1298.8999996185303","","","stimuli/Set_1_rs/045b.jpg","66","","","TL","s","true","s","","","","","","","","","","",""
"image-keyboard-response","149","595502","0.0-2.0-11.0-0.47","955.2000002861023","","","stimuli/Set_1_rs/031b.jpg","77","","","TL","s","false","n","","","","","","","","","","",""
"image-keyboard-response","150","600006","0.0-2.0-11.0-0.48","2292.2999997138977","","","stimuli/Set_1_rs/136a.jpg","67","","","TR","o","true","o","","","","","","","","","","",""
"image-keyboard-response","151","604509","0.0-2.0-11.0-0.49","972.6999998092651","","","stimuli/Set_1_rs/053a.jpg","77","","","TF","n","true","n","","","","","","","","","","",""
"image-keyboard-response","152","609012","0.0-2.0-11.0-0.50","1621.5999999046326","","","stimuli/Set_1_rs/061b.jpg","66","","","TL","s","true","s","","","","","","","","","","",""
"image-keyboard-response","153","613515","0.0-2.0-11.0-0.51","878.0999999046326","","","stimuli/Set_1_rs/062a.jpg","77","","","TF","n","true","n","","","","","","","","","","",""
"image-keyboard-response","154","618019","0.0-2.0-11.0-0.52","1862.9000000953674","","","stimuli/Set_1_rs/009a.jpg","67","","","TR","o","true","o","","","","","","","","","","",""
"image-keyboard-response","155","622521","0.0-2.0-11.0-0.53","1535.9000000953674","","","stimuli/Set_1_rs/099b.jpg","66","","","TL","s","true","s","","","","","","","","","","",""
"image-keyboard-response","156","627024","0.0-2.0-11.0-0.54","1257.2000002861023","","","stimuli/Set_1_rs/030a.jpg","67","","","TR","o","true","o","","","","","","","","","","",""
"image-keyboard-response","157","631527","0.0-2.0-11.0-0.55","1202.1000003814697","","","stimuli/Set_1_rs/029a.jpg","67","","","TR","o","true","o","","","","","","","","","","",""
"image-keyboard-response","158","636030","0.0-2.0-11.0-0.56","2091.7000002861023","","","stimuli/Set_1_rs/140b.jpg","66","","","TL","s","true","s","","","","","","","","","","",""
"image-keyboard-response","159","640533","0.0-2.0-11.0-0.57","1364.0999999046326","","","stimuli/Set_1_rs/182a.jpg","77","","","TF","n","true","n","","","","","","","","","","",""
"image-keyboard-response","160","645036","0.0-2.0-11.0-0.58","2381","","","stimuli/Set_1_rs/151a.jpg","67","","","TF","n","false","o","","","","","","","","","","",""
"image-keyboard-response","161","649539","0.0-2.0-11.0-0.59","1941.8999996185303","","","stimuli/Set_1_rs/142a.jpg","66","","","TR","o","false","s","","","","","","","","","","",""
"image-keyboard-response","162","654042","0.0-2.0-11.0-0.60","1406.7000002861023","","","stimuli/Set_1_rs/070a.jpg","67","","","TR","o","true","o","","","","","","","","","","",""
"image-keyboard-response","163","658546","0.0-2.0-11.0-0.61","951.5","","","stimuli/Set_1_rs/121a.jpg","77","","","TF","n","true","n","","","","","","","","","","",""
"image-keyboard-response","164","663049","0.0-2.0-11.0-0.62","1600.1999998092651","","","stimuli/Set_1_rs/008b.jpg","66","","","TL","s","true","s","","","","","","","","","","",""
"image-keyboard-response","165","667552","0.0-2.0-11.0-0.63","2376.699999809265","","","stimuli/Set_1_rs/092b.jpg","66","","","TL","s","true","s","","","","","","","","","","",""
"image-keyboard-response","166","672055","0.0-2.0-11.0-0.64","1345.3000001907349","","","stimuli/Set_1_rs/192a.jpg","67","","","TR","o","true","o","","","","","","","","","","",""
"image-keyboard-response","167","676559","0.0-2.0-11.0-0.65","1578.5999999046326","","","stimuli/Set_1_rs/147a.jpg","67","","","TR","o","true","o","","","","","","","","","","",""
"image-keyboard-response","168","681063","0.0-2.0-11.0-0.66","1026.2999997138977","","","stimuli/Set_1_rs/032a.jpg","77","","","TF","n","true","n","","","","","","","","","","",""
"image-keyboard-response","169","685565","0.0-2.0-11.0-0.67","1499.3999996185303","","","stimuli/Set_1_rs/128b.jpg","66","","","TL","s","true","s","","","","","","","","","","",""
"image-keyboard-response","170","690068","0.0-2.0-11.0-0.68","1108","","","stimuli/Set_1_rs/186a.jpg","77","","","TF","n","true","n","","","","","","","","","","",""
"image-keyboard-response","171","694572","0.0-2.0-11.0-0.69","1228.9000000953674","","","stimuli/Set_1_rs/109a.jpg","67","","","TR","o","true","o","","","","","","","","","","",""
"image-keyboard-response","172","699074","0.0-2.0-11.0-0.70","1077.5999999046326","","","stimuli/Set_1_rs/160a.jpg","77","","","TF","n","true","n","","","","","","","","","","",""
"image-keyboard-response","173","703578","0.0-2.0-11.0-0.71","1183","","","stimuli/Set_1_rs/086a.jpg","67","","","TR","o","true","o","","","","","","","","","","",""
"image-keyboard-response","174","708081","0.0-2.0-11.0-0.72","1703.3000001907349","","","stimuli/Set_1_rs/023b.jpg","66","","","TL","s","true","s","","","","","","","","","","",""
"image-keyboard-response","175","712584","0.0-2.0-11.0-0.73","1312.7000002861023","","","stimuli/Set_1_rs/114b.jpg","66","","","TL","s","true","s","","","","","","","","","","",""
"image-keyboard-response","176","717087","0.0-2.0-11.0-0.74","1481.3000001907349","","","stimuli/Set_1_rs/033b.jpg","66","","","TL","s","true","s","","","","","","","","","","",""
"image-keyboard-response","177","721591","0.0-2.0-11.0-0.75","1121.5","","","stimuli/Set_1_rs/010a.jpg","67","","","TR","o","true","o","","","","","","","","","","",""
"image-keyboard-response","178","726094","0.0-2.0-11.0-0.76","1033.7999997138977","","","stimuli/Set_1_rs/150a.jpg","67","","","TR","o","true","o","","","","","","","","","","",""
"image-keyboard-response","179","730597","0.0-2.0-11.0-0.77","898.8999996185303","","","stimuli/Set_1_rs/038a.jpg","67","","","TR","o","true","o","","","","","","","","","","",""
"image-keyboard-response","180","735100","0.0-2.0-11.0-0.78","988.2999997138977","","","stimuli/Set_1_rs/022b.jpg","66","","","TL","s","true","s","","","","","","","","","","",""
"image-keyboard-response","181","739603","0.0-2.0-11.0-0.79","980.5999999046326","","","stimuli/Set_1_rs/018a.jpg","77","","","TF","n","true","n","","","","","","","","","","",""
"image-keyboard-response","182","744106","0.0-2.0-11.0-0.80","845.6999998092651","","","stimuli/Set_1_rs/081a.jpg","77","","","TF","n","true","n","","","","","","","","","","",""
"image-keyboard-response","183","748610","0.0-2.0-11.0-0.81","1366.8000001907349","","","stimuli/Set_1_rs/107a.jpg","66","","","TR","o","false","s","","","","","","","","","","",""
"image-keyboard-response","184","753113","0.0-2.0-11.0-0.82","2943.199999809265","","","stimuli/Set_1_rs/101b.jpg","67","","","TL","s","false","o","","","","","","","","","","",""
"image-keyboard-response","185","757616","0.0-2.0-11.0-0.83","1384.2000002861023","","","stimuli/Set_1_rs/178b.jpg","66","","","TL","s","true","s","","","","","","","","","","",""
"image-keyboard-response","186","762119","0.0-2.0-11.0-0.84","1616.9000000953674","","","stimuli/Set_1_rs/103b.jpg","66","","","TL","s","true","s","","","","","","","","","","",""
"image-keyboard-response","187","766622","0.0-2.0-11.0-0.85","2538.300000190735","","","stimuli/Set_1_rs/116b.jpg","66","","","TL","s","true","s","","","","","","","","","","",""
"image-keyboard-response","188","771125","0.0-2.0-11.0-0.86","946.9000000953674","","","stimuli/Set_1_rs/122a.jpg","77","","","TF","n","true","n","","","","","","","","","","",""
"image-keyboard-response","189","775628","0.0-2.0-11.0-0.87","1307.5999999046326","","","stimuli/Set_1_rs/044a.jpg","67","","","TR","o","true","o","","","","","","","","","","",""
"image-keyboard-response","190","780131","0.0-2.0-11.0-0.88","1253.1999998092651","","","stimuli/Set_1_rs/049a.jpg","67","","","TR","o","true","o","","","","","","","","","","",""
"image-keyboard-response","191","784634","0.0-2.0-11.0-0.89","1085.5999999046326","","","stimuli/Set_1_rs/118a.jpg","67","","","TR","o","true","o","","","","","","","","","","",""
"image-keyboard-response","192","789136","0.0-2.0-11.0-0.90","823.0999999046326","","","stimuli/Set_1_rs/040a.jpg","67","","","TR","o","true","o","","","","","","","","","","",""
"image-keyboard-response","193","793639","0.0-2.0-11.0-0.91","1216.5","","","stimuli/Set_1_rs/011b.jpg","66","","","TL","s","true","s","","","","","","","","","","",""
"image-keyboard-response","194","798141","0.0-2.0-11.0-0.92","1002.0999999046326","","","stimuli/Set_1_rs/087a.jpg","77","","","TF","n","true","n","","","","","","","","","","",""
"image-keyboard-response","195","802644","0.0-2.0-11.0-0.93","1123.4000000953674","","","stimuli/Set_1_rs/063a.jpg","67","","","TR","o","true","o","","","","","","","","","","",""
"image-keyboard-response","196","807147","0.0-2.0-11.0-0.94","1116.2000002861023","","","stimuli/Set_1_rs/098b.jpg","66","","","TL","s","true","s","","","","","","","","","","",""
"image-keyboard-response","197","811649","0.0-2.0-11.0-0.95","1077.2000002861023","","","stimuli/Set_1_rs/058a.jpg","67","","","TR","o","true","o","","","","","","","","","","",""
"html-keyboard-response","198","835874","0.0-3.0","24223","","","<p>Vége a feladatnak. Köszönjük a részvételt!</p>","32","","","","","","","31","3","0","4","27","3","1","0","33","0.8823529411764706","0.7941176470588235"
