"trial_type","trial_index","time_elapsed","internal_node_id","rt","responses","success","stimulus","key_press","cond","enc_response","condition","correct_response","correct","rec_response","targ_old","targ_sim","targ_new","lure_old","lure_sim","lure_new","foil_old","foil_sim","foil_new","recognition_ratio","ldi"
"pavlovia","0","4","0.0-0.0","","","","","","","","","","","","","","","","","","","","","",""
"survey-multi-choice","1","4334","0.0-1.0","4319.0999999996275","{""Q0"":""Igen"",""Q1"":""Igen""}","","","","","","","","","","","","","","","","","","","",""
"survey-text","2","30229","0.0-2.0-0.0","25884.800000000745","{""Q0"":""369798""}","","","","","","","","","","","","","","","","","","","",""
"fullscreen","3","32864","0.0-2.0-1.0","","","true","","","","","","","","","","","","","","","","","","",""
"html-keyboard-response","4","45746","0.0-2.0-2.0","12880.599999999627","","","<p>Üdvözöljük! Ez a feladat két részből áll, és összesen 10-15 percet vesz igénybe.</p>","72","","","","","","","","","","","","","","","","",""
"html-keyboard-response","5","66124","0.0-2.0-3.0-0.0","20376.799999999814","","","<p>Az első részben tárgyakat lát majd a képernyőn, egymás után fognak megjelenni.<br>Az Ön feladata eldönteni, hogy a tárgyak <i>beltéri vagy kültéri</i> tárgyak-e.</p>						   <p>Amennyiben a tárgyat általában beltéren látja, nyomja le a <b>C</b> billentyűt. Amennyiben a tárgyat általában kültéren látja, nyomja le az <b>M</b> billentyűt.</p>						   <p>Ebben a feladatban nincsen mindig egyértelműen jó megoldás. Válaszoljon legjobb tudása szerint. A válaszadásra 2 másodperce lesz.","32","","","","","","","","","","","","","","","","",""
"html-keyboard-response","6","68125","0.0-2.0-3.0-1.0","null","","","<p>Kezdődik a gyakorlás...</p>","null","","","","","","","","","","","","","","","","",""
"image-keyboard-response","7","70130","0.0-2.0-4.0-0.0","1823.4000000003725","","","stimuli/Set_2_rs/165b.jpg","77","-","outdoor","","","","","","","","","","","","","","",""
"html-keyboard-response","8","73072","0.0-2.0-4.0-1.0","2440.899999999441","","","<p>Az Ön válasza:</p><p>Kültéri.</p>","32","","","","","","","","","","","","","","","","",""
"image-keyboard-response","9","75076","0.0-2.0-4.0-0.1","1117.4000000003725","","","stimuli/Set_2_rs/034a.jpg","67","-","indoor","","","","","","","","","","","","","","",""
"html-keyboard-response","10","76528","0.0-2.0-4.0-1.1","950.3999999994412","","","<p>Az Ön válasza:</p><p>Beltéri.</p>","32","","","","","","","","","","","","","","","","",""
"image-keyboard-response","11","78531","0.0-2.0-4.0-0.2","1710.0999999996275","","","stimuli/Set_2_rs/049a.jpg","77","SL","outdoor","","","","","","","","","","","","","","",""
"html-keyboard-response","12","80064","0.0-2.0-4.0-1.2","1031.7000000001863","","","<p>Az Ön válasza:</p><p>Kültéri.</p>","32","","","","","","","","","","","","","","","","",""
"image-keyboard-response","13","82066","0.0-2.0-4.0-0.3","1358.7999999998137","","","stimuli/Set_2_rs/028a.jpg","67","SR","indoor","","","","","","","","","","","","","","",""
"html-keyboard-response","14","83648","0.0-2.0-4.0-1.3","1080.0999999996275","","","<p>Az Ön válasza:</p><p>Beltéri.</p>","32","","","","","","","","","","","","","","","","",""
"image-keyboard-response","15","85650","0.0-2.0-4.0-0.4","1390.2000000001863","","","stimuli/Set_2_rs/135a.jpg","67","SL","indoor","","","","","","","","","","","","","","",""
"html-keyboard-response","16","87392","0.0-2.0-4.0-1.4","1239.9000000003725","","","<p>Az Ön válasza:</p><p>Beltéri.</p>","32","","","","","","","","","","","","","","","","",""
"image-keyboard-response","17","89394","0.0-2.0-4.0-0.5","1886.0999999996275","","","stimuli/Set_2_rs/137a.jpg","67","SR","indoor","","","","","","","","","","","","","","",""
"html-keyboard-response","18","91232","0.0-2.0-4.0-1.5","1336","","","<p>Az Ön válasza:</p><p>Beltéri.</p>","32","","","","","","","","","","","","","","","","",""
"html-keyboard-response","19","118656","0.0-2.0-5.0-0.0","27423.200000000186","","","<p>Ez volt a gyakorlás. A feladat következik. A feladat alatt már nem kap visszajelzést.</p>","32","","","","","","","","","","","","","","","","",""
"html-keyboard-response","20","120658","0.0-2.0-5.0-1.0","null","","","<p>Kezdődik a feladat...</p>","null","","","","","","","","","","","","","","","","",""
"image-keyboard-response","21","123161","0.0-2.0-6.0-0.0","1611.800000000745","","","stimuli/Set_1_rs/157a.jpg","77","","outdoor","SR","","","","","","","","","","","","","",""
"image-keyboard-response","22","125663","0.0-2.0-6.0-0.1","1157.800000000745","","","stimuli/Set_1_rs/009a.jpg","67","","indoor","SR","","","","","","","","","","","","","",""
"image-keyboard-response","23","128165","0.0-2.0-6.0-0.2","1551.7000000001863","","","stimuli/Set_1_rs/059a.jpg","77","","outdoor","SL","","","","","","","","","","","","","",""
"image-keyboard-response","24","130667","0.0-2.0-6.0-0.3","1129.4000000003725","","","stimuli/Set_1_rs/024a.jpg","77","","outdoor","SR","","","","","","","","","","","","","",""
"image-keyboard-response","25","133171","0.0-2.0-6.0-0.4","1650.4000000003725","","","stimuli/Set_1_rs/101a.jpg","77","","outdoor","SL","","","","","","","","","","","","","",""
"image-keyboard-response","26","135672","0.0-2.0-6.0-0.5","1099.7999999998137","","","stimuli/Set_1_rs/137a.jpg","77","","outdoor","SR","","","","","","","","","","","","","",""
"image-keyboard-response","27","138174","0.0-2.0-6.0-0.6","1238.2999999998137","","","stimuli/Set_1_rs/011a.jpg","67","","indoor","SL","","","","","","","","","","","","","",""
"image-keyboard-response","28","140676","0.0-2.0-6.0-0.7","1232.5","","","stimuli/Set_1_rs/128a.jpg","77","","outdoor","SL","","","","","","","","","","","","","",""
"image-keyboard-response","29","143179","0.0-2.0-6.0-0.8","1353.4000000003725","","","stimuli/Set_1_rs/083a.jpg","67","","indoor","SL","","","","","","","","","","","","","",""
"image-keyboard-response","30","145681","0.0-2.0-6.0-0.9","1155.1000000005588","","","stimuli/Set_1_rs/136a.jpg","67","","indoor","SR","","","","","","","","","","","","","",""
"image-keyboard-response","31","148183","0.0-2.0-6.0-0.10","1133.1000000005588","","","stimuli/Set_1_rs/103a.jpg","67","","indoor","SL","","","","","","","","","","","","","",""
"image-keyboard-response","32","150685","0.0-2.0-6.0-0.11","807.6000000005588","","","stimuli/Set_1_rs/086a.jpg","67","","indoor","SR","","","","","","","","","","","","","",""
"image-keyboard-response","33","153187","0.0-2.0-6.0-0.12","1009.4000000003725","","","stimuli/Set_1_rs/099a.jpg","77","","outdoor","SL","","","","","","","","","","","","","",""
"image-keyboard-response","34","155689","0.0-2.0-6.0-0.13","1339.699999999255","","","stimuli/Set_1_rs/178a.jpg","67","","indoor","SL","","","","","","","","","","","","","",""
"image-keyboard-response","35","158191","0.0-2.0-6.0-0.14","1493.199999999255","","","stimuli/Set_1_rs/134a.jpg","77","","outdoor","SL","","","","","","","","","","","","","",""
"image-keyboard-response","36","160693","0.0-2.0-6.0-0.15","1022.9000000003725","","","stimuli/Set_1_rs/156a.jpg","67","","indoor","SL","","","","","","","","","","","","","",""
"image-keyboard-response","37","163196","0.0-2.0-6.0-0.16","1032.2999999998137","","","stimuli/Set_1_rs/054a.jpg","67","","indoor","SR","","","","","","","","","","","","","",""
"image-keyboard-response","38","165698","0.0-2.0-6.0-0.17","866.7000000001863","","","stimuli/Set_1_rs/092a.jpg","77","","outdoor","SL","","","","","","","","","","","","","",""
"image-keyboard-response","39","168200","0.0-2.0-6.0-0.18","1180.5999999996275","","","stimuli/Set_1_rs/031a.jpg","67","","indoor","SL","","","","","","","","","","","","","",""
"image-keyboard-response","40","170702","0.0-2.0-6.0-0.19","1030.2000000001863","","","stimuli/Set_1_rs/013a.jpg","67","","indoor","SL","","","","","","","","","","","","","",""
"image-keyboard-response","41","173205","0.0-2.0-6.0-0.20","1631.5","","","stimuli/Set_1_rs/075a.jpg","67","","indoor","SL","","","","","","","","","","","","","",""
"image-keyboard-response","42","175707","0.0-2.0-6.0-0.21","1641.4000000003725","","","stimuli/Set_1_rs/150a.jpg","67","","indoor","SR","","","","","","","","","","","","","",""
"image-keyboard-response","43","178210","0.0-2.0-6.0-0.22","1203.2999999998137","","","stimuli/Set_1_rs/094a.jpg","67","","indoor","SL","","","","","","","","","","","","","",""
"image-keyboard-response","44","180713","0.0-2.0-6.0-0.23","764.1000000005588","","","stimuli/Set_1_rs/090a.jpg","77","","outdoor","SL","","","","","","","","","","","","","",""
"image-keyboard-response","45","183216","0.0-2.0-6.0-0.24","1428.4000000003725","","","stimuli/Set_1_rs/192a.jpg","67","","indoor","SR","","","","","","","","","","","","","",""
"image-keyboard-response","46","185717","0.0-2.0-6.0-0.25","1262.9000000003725","","","stimuli/Set_1_rs/116a.jpg","77","","outdoor","SL","","","","","","","","","","","","","",""
"image-keyboard-response","47","188219","0.0-2.0-6.0-0.26","1129.1000000005588","","","stimuli/Set_1_rs/044a.jpg","67","","indoor","SR","","","","","","","","","","","","","",""
"image-keyboard-response","48","190721","0.0-2.0-6.0-0.27","1122.9000000003725","","","stimuli/Set_1_rs/114a.jpg","67","","indoor","SL","","","","","","","","","","","","","",""
"image-keyboard-response","49","193223","0.0-2.0-6.0-0.28","1548.300000000745","","","stimuli/Set_1_rs/112a.jpg","77","","outdoor","SR","","","","","","","","","","","","","",""
"image-keyboard-response","50","195726","0.0-2.0-6.0-0.29","1750.9000000003725","","","stimuli/Set_1_rs/052a.jpg","77","","outdoor","SL","","","","","","","","","","","","","",""
"image-keyboard-response","51","198227","0.0-2.0-6.0-0.30","1344.7999999998137","","","stimuli/Set_1_rs/058a.jpg","67","","indoor","SR","","","","","","","","","","","","","",""
"image-keyboard-response","52","200729","0.0-2.0-6.0-0.31","1099.2000000001863","","","stimuli/Set_1_rs/023a.jpg","67","","indoor","SL","","","","","","","","","","","","","",""
"image-keyboard-response","53","203232","0.0-2.0-6.0-0.32","2052.2000000001863","","","stimuli/Set_1_rs/030a.jpg","67","","indoor","SR","","","","","","","","","","","","","",""
"image-keyboard-response","54","205733","0.0-2.0-6.0-0.33","1166.2999999998137","","","stimuli/Set_1_rs/091a.jpg","67","","indoor","SR","","","","","","","","","","","","","",""
"image-keyboard-response","55","208235","0.0-2.0-6.0-0.34","1112.7999999998137","","","stimuli/Set_1_rs/147a.jpg","67","","indoor","SR","","","","","","","","","","","","","",""
"image-keyboard-response","56","210737","0.0-2.0-6.0-0.35","723.7999999998137","","","stimuli/Set_1_rs/063a.jpg","67","","indoor","SR","","","","","","","","","","","","","",""
"image-keyboard-response","57","213240","0.0-2.0-6.0-0.36","1260.7999999998137","","","stimuli/Set_1_rs/040a.jpg","77","","outdoor","SR","","","","","","","","","","","","","",""
"image-keyboard-response","58","215741","0.0-2.0-6.0-0.37","982.5","","","stimuli/Set_1_rs/038a.jpg","67","","indoor","SR","","","","","","","","","","","","","",""
"image-keyboard-response","59","218243","0.0-2.0-6.0-0.38","1361.0999999996275","","","stimuli/Set_1_rs/100a.jpg","67","","indoor","SL","","","","","","","","","","","","","",""
"image-keyboard-response","60","220745","0.0-2.0-6.0-0.39","1227.0999999996275","","","stimuli/Set_1_rs/109a.jpg","67","","indoor","SR","","","","","","","","","","","","","",""
"image-keyboard-response","61","223248","0.0-2.0-6.0-0.40","1492.199999999255","","","stimuli/Set_1_rs/191a.jpg","67","","indoor","SR","","","","","","","","","","","","","",""
"image-keyboard-response","62","225750","0.0-2.0-6.0-0.41","1390.2000000001863","","","stimuli/Set_1_rs/061a.jpg","77","","outdoor","SL","","","","","","","","","","","","","",""
"image-keyboard-response","63","228252","0.0-2.0-6.0-0.42","1080.0999999996275","","","stimuli/Set_1_rs/162a.jpg","67","","indoor","SR","","","","","","","","","","","","","",""
"image-keyboard-response","64","230754","0.0-2.0-6.0-0.43","1154","","","stimuli/Set_1_rs/046a.jpg","67","","indoor","SR","","","","","","","","","","","","","",""
"image-keyboard-response","65","233257","0.0-2.0-6.0-0.44","907.0999999996275","","","stimuli/Set_1_rs/155a.jpg","77","","outdoor","SL","","","","","","","","","","","","","",""
"image-keyboard-response","66","235759","0.0-2.0-6.0-0.45","1189.5","","","stimuli/Set_1_rs/010a.jpg","67","","indoor","SR","","","","","","","","","","","","","",""
"image-keyboard-response","67","238260","0.0-2.0-6.0-0.46","1151.5","","","stimuli/Set_1_rs/142a.jpg","67","","indoor","SR","","","","","","","","","","","","","",""
"image-keyboard-response","68","240762","0.0-2.0-6.0-0.47","1241.699999999255","","","stimuli/Set_1_rs/045a.jpg","67","","indoor","SL","","","","","","","","","","","","","",""
"image-keyboard-response","69","243265","0.0-2.0-6.0-0.48","1843.4000000003725","","","stimuli/Set_1_rs/070a.jpg","67","","indoor","SR","","","","","","","","","","","","","",""
"image-keyboard-response","70","245767","0.0-2.0-6.0-0.49","1244.8999999994412","","","stimuli/Set_1_rs/022a.jpg","67","","indoor","SL","","","","","","","","","","","","","",""
"image-keyboard-response","71","248269","0.0-2.0-6.0-0.50","870.6000000005588","","","stimuli/Set_1_rs/021a.jpg","77","","outdoor","SR","","","","","","","","","","","","","",""
"image-keyboard-response","72","250771","0.0-2.0-6.0-0.51","880.6000000005588","","","stimuli/Set_1_rs/098a.jpg","67","","indoor","SL","","","","","","","","","","","","","",""
"image-keyboard-response","73","253274","0.0-2.0-6.0-0.52","1081.9000000003725","","","stimuli/Set_1_rs/008a.jpg","67","","indoor","SL","","","","","","","","","","","","","",""
"image-keyboard-response","74","255776","0.0-2.0-6.0-0.53","819.9000000003725","","","stimuli/Set_1_rs/012a.jpg","67","","indoor","SL","","","","","","","","","","","","","",""
"image-keyboard-response","75","258278","0.0-2.0-6.0-0.54","1102","","","stimuli/Set_1_rs/153a.jpg","67","","indoor","SR","","","","","","","","","","","","","",""
"image-keyboard-response","76","260780","0.0-2.0-6.0-0.55","2055.4000000003725","","","stimuli/Set_1_rs/068a.jpg","77","","outdoor","SL","","","","","","","","","","","","","",""
"image-keyboard-response","77","263283","0.0-2.0-6.0-0.56","705.0999999996275","","","stimuli/Set_1_rs/140a.jpg","67","","indoor","SL","","","","","","","","","","","","","",""
"image-keyboard-response","78","265785","0.0-2.0-6.0-0.57","1530.9000000003725","","","stimuli/Set_1_rs/029a.jpg","67","","indoor","SR","","","","","","","","","","","","","",""
"image-keyboard-response","79","268287","0.0-2.0-6.0-0.58","949.2999999998137","","","stimuli/Set_1_rs/049a.jpg","77","","outdoor","SR","","","","","","","","","","","","","",""
"image-keyboard-response","80","270789","0.0-2.0-6.0-0.59","734.8999999994412","","","stimuli/Set_1_rs/180a.jpg","67","","indoor","SR","","","","","","","","","","","","","",""
"image-keyboard-response","81","273291","0.0-2.0-6.0-0.60","1016.5999999996275","","","stimuli/Set_1_rs/033a.jpg","67","","indoor","SL","","","","","","","","","","","","","",""
"image-keyboard-response","82","275793","0.0-2.0-6.0-0.61","1203.2999999998137","","","stimuli/Set_1_rs/119a.jpg","77","","outdoor","SL","","","","","","","","","","","","","",""
"image-keyboard-response","83","278295","0.0-2.0-6.0-0.62","733.2000000001863","","","stimuli/Set_1_rs/118a.jpg","67","","indoor","SR","","","","","","","","","","","","","",""
"image-keyboard-response","84","280796","0.0-2.0-6.0-0.63","1702.9000000003725","","","stimuli/Set_1_rs/107a.jpg","67","","indoor","SR","","","","","","","","","","","","","",""
"html-keyboard-response","85","289423","0.0-2.0-7.0","8625.899999999441","","","<p>Vége a feladat első részének. Tartson egy pár perces szünetet.</p>","32","","","","","","","","","","","","","","","","",""
"html-keyboard-response","86","332223","0.0-2.0-8.0-0.0","42799.300000000745","","","<p>A következőkben ismét tárgyak jelennek majd meg a képernyőn, egymás után.<br>Az Ön feladata eldönteni, látta-e már ezeket a tárgyakat a vizsgálat első felében.</p>		        			<p>Amennyiben pontosan ugyanezt a tárgyat látta (a tárgy <i>régi</i>), nyomja le a <b>C</b> billentyűt.</p>		        			<p>Amennyiben hasonló tárgyat látott (a tárgy <i>hasonló</i>), nyomja le a <b>B</b> billentyűt.</p>		        			<p>Amennyiben nem látta ezt a tárgyat az első részben (a tárgy <i>új</i>), nyomja le az <b>M</b> billentyűt.</p>","32","","","","","","","","","","","","","","","","",""
"html-keyboard-response","87","334224","0.0-2.0-8.0-1.0","null","","","<p>Kezdődik a gyakorlás...</p>","null","","","","","","","","","","","","","","","","",""
"image-keyboard-response","88","338228","0.0-2.0-9.0-0.0","2075.2999999998137","","","stimuli/Set_2_rs/049b.jpg","66","","","TL","l","false","s","","","","","","","","","","",""
"html-keyboard-response","89","339710","0.0-2.0-9.0-1.0","1480.5999999996275","","","<p>A helyes válasz: Hasonló.</p><p>Az Ön válasza: Hasonló.</p>","32","","","","","","","","","","","","","","","","",""
"image-keyboard-response","90","343712","0.0-2.0-9.0-0.1","3470.300000000745","","","stimuli/Set_2_rs/018b.jpg","77","","","TF","n","true","n","","","","","","","","","","",""
"html-keyboard-response","91","345326","0.0-2.0-9.0-1.1","1612.1000000005588","","","<p>A helyes válasz: Új.</p><p>Az Ön válasza: Új.</p>","32","","","","","","","","","","","","","","","","",""
"image-keyboard-response","92","349329","0.0-2.0-9.0-0.2","3821.899999999441","","","stimuli/Set_2_rs/028a.jpg","67","","","TR","o","true","o","","","","","","","","","","",""
"html-keyboard-response","93","351646","0.0-2.0-9.0-1.2","2315.2999999998137","","","<p>A helyes válasz: Régi.</p><p>Az Ön válasza: Régi.</p>","32","","","","","","","","","","","","","","","","",""
"image-keyboard-response","94","355649","0.0-2.0-9.0-0.3","null","","","stimuli/Set_2_rs/137a.jpg","null","","","TR","o","false","null","","","","","","","","","","",""
"html-keyboard-response","95","357406","0.0-2.0-9.0-1.3","1755.2999999998137","","","<p>A helyes válasz: Régi.</p><p>Nem adott választ.</p>","32","","","","","","","","","","","","","","","","",""
"image-keyboard-response","96","361409","0.0-2.0-9.0-0.4","1965.7000000001863","","","stimuli/Set_2_rs/135b.jpg","67","","","TL","l","false","o","","","","","","","","","","",""
"html-keyboard-response","97","363390","0.0-2.0-9.0-1.4","1979.5","","","<p>A helyes válasz: Hasonló.</p><p>Az Ön válasza: Régi.</p>","32","","","","","","","","","","","","","","","","",""
"image-keyboard-response","98","367392","0.0-2.0-9.0-0.5","1901.9000000003725","","","stimuli/Set_2_rs/019a.jpg","77","","","TF","n","true","n","","","","","","","","","","",""
"html-keyboard-response","99","368286","0.0-2.0-9.0-1.5","892.1999999992549","","","<p>A helyes válasz: Új.</p><p>Az Ön válasza: Új.</p>","32","","","","","","","","","","","","","","","","",""
"html-keyboard-response","100","371774","0.0-2.0-10.0-0.0","3487.2000000001863","","","<p>Ez volt a gyakorlás. A feladat következik. A feladat alatt már nem kap visszajelzést.</p>","32","","","","","","","","","","","","","","","","",""
"html-keyboard-response","101","373775","0.0-2.0-10.0-1.0","null","","","<p>Kezdődik a feladat...</p>","null","","","","","","","","","","","","","","","","",""
"image-keyboard-response","102","378278","0.0-2.0-11.0-0.0","1804.2999999998137","","","stimuli/Set_1_rs/181a.jpg","77","","","TF","n","true","n","","","","","","","","","","",""
"image-keyboard-response","103","382782","0.0-2.0-11.0-0.1","2644.7999999998137","","","stimuli/Set_1_rs/152a.jpg","77","","","TF","n","true","n","","","","","","","","","","",""
"image-keyboard-response","104","387285","0.0-2.0-11.0-0.2","1677.2000000001863","","","stimuli/Set_1_rs/090b.jpg","66","","","TL","s","true","s","","","","","","","","","","",""
"image-keyboard-response","105","391789","0.0-2.0-11.0-0.3","1174.300000000745","","","stimuli/Set_1_rs/126a.jpg","77","","","TF","n","true","n","","","","","","","","","","",""
"image-keyboard-response","106","396292","0.0-2.0-11.0-0.4","1438.4000000003725","","","stimuli/Set_1_rs/068b.jpg","66","","","TL","s","true","s","","","","","","","","","","",""
"image-keyboard-response","107","400795","0.0-2.0-11.0-0.5","1175.5","","","stimuli/Set_1_rs/054a.jpg","67","","","TR","o","true","o","","","","","","","","","","",""
"image-keyboard-response","108","405298","0.0-2.0-11.0-0.6","2880.5","","","stimuli/Set_1_rs/162a.jpg","67","","","TR","o","true","o","","","","","","","","","","",""
"image-keyboard-response","109","409802","0.0-2.0-11.0-0.7","2617.2999999998137","","","stimuli/Set_1_rs/019a.jpg","77","","","TF","n","true","n","","","","","","","","","","",""
"image-keyboard-response","110","414304","0.0-2.0-11.0-0.8","1473.699999999255","","","stimuli/Set_1_rs/119b.jpg","66","","","TL","s","true","s","","","","","","","","","","",""
"image-keyboard-response","111","418807","0.0-2.0-11.0-0.9","1483.5","","","stimuli/Set_1_rs/052b.jpg","66","","","TL","s","true","s","","","","","","","","","","",""
"image-keyboard-response","112","423311","0.0-2.0-11.0-0.10","1764.5999999996275","","","stimuli/Set_1_rs/135a.jpg","77","","","TF","n","true","n","","","","","","","","","","",""
"image-keyboard-response","113","427814","0.0-2.0-11.0-0.11","1644.7999999998137","","","stimuli/Set_1_rs/004a.jpg","77","","","TF","n","true","n","","","","","","","","","","",""
"image-keyboard-response","114","432317","0.0-2.0-11.0-0.12","2421.7000000001863","","","stimuli/Set_1_rs/072a.jpg","77","","","TF","n","true","n","","","","","","","","","","",""
"image-keyboard-response","115","436819","0.0-2.0-11.0-0.13","1279.2999999998137","","","stimuli/Set_1_rs/028a.jpg","77","","","TF","n","true","n","","","","","","","","","","",""
"image-keyboard-response","116","441323","0.0-2.0-11.0-0.14","1976.2999999998137","","","stimuli/Set_1_rs/091a.jpg","67","","","TR","o","true","o","","","","","","","","","","",""
"image-keyboard-response","117","445825","0.0-2.0-11.0-0.15","null","","","stimuli/Set_1_rs/108a.jpg","null","","","TF","n","false","null","","","","","","","","","","",""
"image-keyboard-response","118","450328","0.0-2.0-11.0-0.16","2858.5","","","stimuli/Set_1_rs/146a.jpg","77","","","TF","n","true","n","","","","","","","","","","",""
"image-keyboard-response","119","454831","0.0-2.0-11.0-0.17","1379.0999999996275","","","stimuli/Set_1_rs/013b.jpg","66","","","TL","s","true","s","","","","","","","","","","",""
"image-keyboard-response","120","459333","0.0-2.0-11.0-0.18","1356.7000000001863","","","stimuli/Set_1_rs/141a.jpg","77","","","TF","n","true","n","","","","","","","","","","",""
"image-keyboard-response","121","463837","0.0-2.0-11.0-0.19","1429.7000000001863","","","stimuli/Set_1_rs/156b.jpg","67","","","TL","s","false","o","","","","","","","","","","",""
"image-keyboard-response","122","468340","0.0-2.0-11.0-0.20","2158.5","","","stimuli/Set_1_rs/024a.jpg","66","","","TR","o","false","s","","","","","","","","","","",""
"image-keyboard-response","123","472843","0.0-2.0-11.0-0.21","1319.3999999994412","","","stimuli/Set_1_rs/046a.jpg","67","","","TR","o","true","o","","","","","","","","","","",""
"image-keyboard-response","124","477345","0.0-2.0-11.0-0.22","2480.7999999998137","","","stimuli/Set_1_rs/100b.jpg","67","","","TL","s","false","o","","","","","","","","","","",""
"image-keyboard-response","125","481848","0.0-2.0-11.0-0.23","1354.2999999998137","","","stimuli/Set_1_rs/080a.jpg","77","","","TF","n","true","n","","","","","","","","","","",""
"image-keyboard-response","126","486351","0.0-2.0-11.0-0.24","1491.2000000001863","","","stimuli/Set_1_rs/094b.jpg","67","","","TL","s","false","o","","","","","","","","","","",""
"image-keyboard-response","127","490854","0.0-2.0-11.0-0.25","1564.6000000005588","","","stimuli/Set_1_rs/190a.jpg","77","","","TF","n","true","n","","","","","","","","","","",""
"image-keyboard-response","128","495356","0.0-2.0-11.0-0.26","1109.5","","","stimuli/Set_1_rs/137a.jpg","67","","","TR","o","true","o","","","","","","","","","","",""
"image-keyboard-response","129","499859","0.0-2.0-11.0-0.27","1071","","","stimuli/Set_1_rs/180a.jpg","67","","","TR","o","true","o","","","","","","","","","","",""
"image-keyboard-response","130","504361","0.0-2.0-11.0-0.28","2488.699999999255","","","stimuli/Set_1_rs/134b.jpg","66","","","TL","s","true","s","","","","","","","","","","",""
"image-keyboard-response","131","508863","0.0-2.0-11.0-0.29","1266.4000000003725","","","stimuli/Set_1_rs/088a.jpg","77","","","TF","n","true","n","","","","","","","","","","",""
"image-keyboard-response","132","513366","0.0-2.0-11.0-0.30","1547.7000000001863","","","stimuli/Set_1_rs/165a.jpg","77","","","TF","n","true","n","","","","","","","","","","",""
"image-keyboard-response","133","517869","0.0-2.0-11.0-0.31","2213.0999999996275","","","stimuli/Set_1_rs/075b.jpg","66","","","TL","s","true","s","","","","","","","","","","",""
"image-keyboard-response","134","522374","0.0-2.0-11.0-0.32","1068.2000000001863","","","stimuli/Set_1_rs/191a.jpg","67","","","TR","o","true","o","","","","","","","","","","",""
"image-keyboard-response","135","526877","0.0-2.0-11.0-0.33","1445.300000000745","","","stimuli/Set_1_rs/112a.jpg","67","","","TR","o","true","o","","","","","","","","","","",""
"image-keyboard-response","136","531379","0.0-2.0-11.0-0.34","1086.5","","","stimuli/Set_1_rs/171a.jpg","77","","","TF","n","true","n","","","","","","","","","","",""
"image-keyboard-response","137","535882","0.0-2.0-11.0-0.35","1191.5","","","stimuli/Set_1_rs/021a.jpg","67","","","TR","o","true","o","","","","","","","","","","",""
"image-keyboard-response","138","540385","0.0-2.0-11.0-0.36","2288.800000000745","","","stimuli/Set_1_rs/157a.jpg","67","","","TR","o","true","o","","","","","","","","","","",""
"image-keyboard-response","139","544888","0.0-2.0-11.0-0.37","2794.2999999998137","","","stimuli/Set_1_rs/059b.jpg","66","","","TL","s","true","s","","","","","","","","","","",""
"image-keyboard-response","140","549391","0.0-2.0-11.0-0.38","1523.2000000001863","","","stimuli/Set_1_rs/153a.jpg","67","","","TR","o","true","o","","","","","","","","","","",""
"image-keyboard-response","141","553893","0.0-2.0-11.0-0.39","1164.5","","","stimuli/Set_1_rs/002a.jpg","77","","","TF","n","true","n","","","","","","","","","","",""
"image-keyboard-response","142","558397","0.0-2.0-11.0-0.40","2549.899999999441","","","stimuli/Set_1_rs/041a.jpg","77","","","TF","n","true","n","","","","","","","","","","",""
"image-keyboard-response","143","562900","0.0-2.0-11.0-0.41","1405.8999999994412","","","stimuli/Set_1_rs/012b.jpg","66","","","TL","s","true","s","","","","","","","","","","",""
"image-keyboard-response","144","567403","0.0-2.0-11.0-0.42","1943.2000000001863","","","stimuli/Set_1_rs/083b.jpg","67","","","TL","s","false","o","","","","","","","","","","",""
"image-keyboard-response","145","571906","0.0-2.0-11.0-0.43","1423.7999999998137","","","stimuli/Set_1_rs/051a.jpg","77","","","TF","n","true","n","","","","","","","","","","",""
"image-keyboard-response","146","576409","0.0-2.0-11.0-0.44","1432.4000000003725","","","stimuli/Set_1_rs/168a.jpg","77","","","TF","n","true","n","","","","","","","","","","",""
"image-keyboard-response","147","580912","0.0-2.0-11.0-0.45","1329.5","","","stimuli/Set_1_rs/155b.jpg","66","","","TL","s","true","s","","","","","","","","","","",""
"image-keyboard-response","148","585415","0.0-2.0-11.0-0.46","1322.5999999996275","","","stimuli/Set_1_rs/045b.jpg","66","","","TL","s","true","s","","","","","","","","","","",""
"image-keyboard-response","149","589918","0.0-2.0-11.0-0.47","1411.4000000003725","","","stimuli/Set_1_rs/031b.jpg","66","","","TL","s","true","s","","","","","","","","","","",""
"image-keyboard-response","150","594420","0.0-2.0-11.0-0.48","1532.800000000745","","","stimuli/Set_1_rs/136a.jpg","67","","","TR","o","true","o","","","","","","","","","","",""
"image-keyboard-response","151","598923","0.0-2.0-11.0-0.49","1526.0999999996275","","","stimuli/Set_1_rs/053a.jpg","77","","","TF","n","true","n","","","","","","","","","","",""
"image-keyboard-response","152","603426","0.0-2.0-11.0-0.50","1823.3999999994412","","","stimuli/Set_1_rs/061b.jpg","66","","","TL","s","true","s","","","","","","","","","","",""
"image-keyboard-response","153","607928","0.0-2.0-11.0-0.51","1225","","","stimuli/Set_1_rs/062a.jpg","77","","","TF","n","true","n","","","","","","","","","","",""
"image-keyboard-response","154","612431","0.0-2.0-11.0-0.52","1154.2999999998137","","","stimuli/Set_1_rs/009a.jpg","67","","","TR","o","true","o","","","","","","","","","","",""
"image-keyboard-response","155","616934","0.0-2.0-11.0-0.53","1883.2000000001863","","","stimuli/Set_1_rs/099b.jpg","66","","","TL","s","true","s","","","","","","","","","","",""
"image-keyboard-response","156","621436","0.0-2.0-11.0-0.54","1428.7999999998137","","","stimuli/Set_1_rs/030a.jpg","67","","","TR","o","true","o","","","","","","","","","","",""
"image-keyboard-response","157","625939","0.0-2.0-11.0-0.55","1486","","","stimuli/Set_1_rs/029a.jpg","67","","","TR","o","true","o","","","","","","","","","","",""
"image-keyboard-response","158","630442","0.0-2.0-11.0-0.56","2311","","","stimuli/Set_1_rs/140b.jpg","66","","","TL","s","true","s","","","","","","","","","","",""
"image-keyboard-response","159","634944","0.0-2.0-11.0-0.57","1104.5999999996275","","","stimuli/Set_1_rs/182a.jpg","77","","","TF","n","true","n","","","","","","","","","","",""
"image-keyboard-response","160","639447","0.0-2.0-11.0-0.58","1401.9000000003725","","","stimuli/Set_1_rs/151a.jpg","77","","","TF","n","true","n","","","","","","","","","","",""
"image-keyboard-response","161","643949","0.0-2.0-11.0-0.59","1811.0999999996275","","","stimuli/Set_1_rs/142a.jpg","66","","","TR","o","false","s","","","","","","","","","","",""
"image-keyboard-response","162","648452","0.0-2.0-11.0-0.60","1180.7000000001863","","","stimuli/Set_1_rs/070a.jpg","67","","","TR","o","true","o","","","","","","","","","","",""
"image-keyboard-response","163","652955","0.0-2.0-11.0-0.61","1125.6000000005588","","","stimuli/Set_1_rs/121a.jpg","77","","","TF","n","true","n","","","","","","","","","","",""
"image-keyboard-response","164","657458","0.0-2.0-11.0-0.62","1615","","","stimuli/Set_1_rs/008b.jpg","67","","","TL","s","false","o","","","","","","","","","","",""
"image-keyboard-response","165","661961","0.0-2.0-11.0-0.63","1688","","","stimuli/Set_1_rs/092b.jpg","66","","","TL","s","true","s","","","","","","","","","","",""
"image-keyboard-response","166","666464","0.0-2.0-11.0-0.64","1168.5999999996275","","","stimuli/Set_1_rs/192a.jpg","67","","","TR","o","true","o","","","","","","","","","","",""
"image-keyboard-response","167","670967","0.0-2.0-11.0-0.65","1753.5999999996275","","","stimuli/Set_1_rs/147a.jpg","67","","","TR","o","true","o","","","","","","","","","","",""
"image-keyboard-response","168","675470","0.0-2.0-11.0-0.66","2563.0999999996275","","","stimuli/Set_1_rs/032a.jpg","77","","","TF","n","true","n","","","","","","","","","","",""
"image-keyboard-response","169","679973","0.0-2.0-11.0-0.67","1532.1000000005588","","","stimuli/Set_1_rs/128b.jpg","66","","","TL","s","true","s","","","","","","","","","","",""
"image-keyboard-response","170","684476","0.0-2.0-11.0-0.68","2485.4000000003725","","","stimuli/Set_1_rs/186a.jpg","77","","","TF","n","true","n","","","","","","","","","","",""
"image-keyboard-response","171","688978","0.0-2.0-11.0-0.69","1262.199999999255","","","stimuli/Set_1_rs/109a.jpg","67","","","TR","o","true","o","","","","","","","","","","",""
"image-keyboard-response","172","693481","0.0-2.0-11.0-0.70","3031.399999999441","","","stimuli/Set_1_rs/160a.jpg","77","","","TF","n","true","n","","","","","","","","","","",""
"image-keyboard-response","173","697985","0.0-2.0-11.0-0.71","1967.7999999998137","","","stimuli/Set_1_rs/086a.jpg","67","","","TR","o","true","o","","","","","","","","","","",""
"image-keyboard-response","174","702487","0.0-2.0-11.0-0.72","1112.8999999994412","","","stimuli/Set_1_rs/023b.jpg","67","","","TL","s","false","o","","","","","","","","","","",""
"image-keyboard-response","175","706991","0.0-2.0-11.0-0.73","1602.2000000001863","","","stimuli/Set_1_rs/114b.jpg","67","","","TL","s","false","o","","","","","","","","","","",""
"image-keyboard-response","176","711494","0.0-2.0-11.0-0.74","1754.5","","","stimuli/Set_1_rs/033b.jpg","66","","","TL","s","true","s","","","","","","","","","","",""
"image-keyboard-response","177","715997","0.0-2.0-11.0-0.75","1059.1000000005588","","","stimuli/Set_1_rs/010a.jpg","67","","","TR","o","true","o","","","","","","","","","","",""
"image-keyboard-response","178","720500","0.0-2.0-11.0-0.76","1403.800000000745","","","stimuli/Set_1_rs/150a.jpg","67","","","TR","o","true","o","","","","","","","","","","",""
"image-keyboard-response","179","725004","0.0-2.0-11.0-0.77","1092.8999999994412","","","stimuli/Set_1_rs/038a.jpg","67","","","TR","o","true","o","","","","","","","","","","",""
"image-keyboard-response","180","729507","0.0-2.0-11.0-0.78","1357.5","","","stimuli/Set_1_rs/022b.jpg","66","","","TL","s","true","s","","","","","","","","","","",""
"image-keyboard-response","181","734010","0.0-2.0-11.0-0.79","1189.8999999994412","","","stimuli/Set_1_rs/018a.jpg","77","","","TF","n","true","n","","","","","","","","","","",""
"image-keyboard-response","182","738513","0.0-2.0-11.0-0.80","2366.9000000003725","","","stimuli/Set_1_rs/081a.jpg","77","","","TF","n","true","n","","","","","","","","","","",""
"image-keyboard-response","183","743016","0.0-2.0-11.0-0.81","1432","","","stimuli/Set_1_rs/107a.jpg","67","","","TR","o","true","o","","","","","","","","","","",""
"image-keyboard-response","184","747520","0.0-2.0-11.0-0.82","1569.5","","","stimuli/Set_1_rs/101b.jpg","67","","","TL","s","false","o","","","","","","","","","","",""
"image-keyboard-response","185","752023","0.0-2.0-11.0-0.83","1673.7000000001863","","","stimuli/Set_1_rs/178b.jpg","66","","","TL","s","true","s","","","","","","","","","","",""
"image-keyboard-response","186","756525","0.0-2.0-11.0-0.84","1122.5","","","stimuli/Set_1_rs/103b.jpg","77","","","TL","s","false","n","","","","","","","","","","",""
"image-keyboard-response","187","761028","0.0-2.0-11.0-0.85","1452.199999999255","","","stimuli/Set_1_rs/116b.jpg","66","","","TL","s","true","s","","","","","","","","","","",""
"image-keyboard-response","188","765532","0.0-2.0-11.0-0.86","1157","","","stimuli/Set_1_rs/122a.jpg","77","","","TF","n","true","n","","","","","","","","","","",""
"image-keyboard-response","189","770035","0.0-2.0-11.0-0.87","1293.5","","","stimuli/Set_1_rs/044a.jpg","67","","","TR","o","true","o","","","","","","","","","","",""
"image-keyboard-response","190","774538","0.0-2.0-11.0-0.88","2358.399999999441","","","stimuli/Set_1_rs/049a.jpg","67","","","TR","o","true","o","","","","","","","","","","",""
"image-keyboard-response","191","779041","0.0-2.0-11.0-0.89","1055.4000000003725","","","stimuli/Set_1_rs/118a.jpg","67","","","TR","o","true","o","","","","","","","","","","",""
"image-keyboard-response","192","783544","0.0-2.0-11.0-0.90","1448.2000000001863","","","stimuli/Set_1_rs/040a.jpg","67","","","TR","o","true","o","","","","","","","","","","",""
"image-keyboard-response","193","788047","0.0-2.0-11.0-0.91","865.2000000001863","","","stimuli/Set_1_rs/011b.jpg","67","","","TL","s","false","o","","","","","","","","","","",""
"image-keyboard-response","194","792551","0.0-2.0-11.0-0.92","1321.7999999998137","","","stimuli/Set_1_rs/087a.jpg","77","","","TF","n","true","n","","","","","","","","","","",""
"image-keyboard-response","195","797054","0.0-2.0-11.0-0.93","1122.2000000001863","","","stimuli/Set_1_rs/063a.jpg","67","","","TR","o","true","o","","","","","","","","","","",""
"image-keyboard-response","196","801556","0.0-2.0-11.0-0.94","971.2000000001863","","","stimuli/Set_1_rs/098b.jpg","66","","","TL","s","true","s","","","","","","","","","","",""
"image-keyboard-response","197","806060","0.0-2.0-11.0-0.95","1252.3999999994412","","","stimuli/Set_1_rs/058a.jpg","67","","","TR","o","true","o","","","","","","","","","","",""
"html-keyboard-response","198","817851","0.0-3.0","11789.400000000373","","","<p>Vége a feladatnak. Köszönjük a részvételt!</p>","74","","","","","","","31","2","0","10","23","1","0","0","33","0.9393939393939394","0.6764705882352942"
