"trial_type","trial_index","time_elapsed","internal_node_id","rt","responses","success","stimulus","key_press","cond","enc_response","condition","correct_response","correct","rec_response","targ_old","targ_sim","targ_new","lure_old","lure_sim","lure_new","foil_old","foil_sim","foil_new","recognition_ratio","ldi"
"pavlovia","0","8","0.0-0.0","","","","","","","","","","","","","","","","","","","","","",""
"survey-multi-choice","1","3065","0.0-1.0","3052.2999997138977","{""Q0"":""Igen"",""Q1"":""Igen""}","","","","","","","","","","","","","","","","","","","",""
"survey-text","2","14609","0.0-2.0-0.0","11540.400000095367","{""Q0"":""815115""}","","","","","","","","","","","","","","","","","","","",""
"fullscreen","3","16512","0.0-2.0-1.0","","","true","","","","","","","","","","","","","","","","","","",""
"html-keyboard-response","4","25502","0.0-2.0-2.0","8987.400000095367","","","<p>Üdvözöljük! Ez a feladat két részből áll, és összesen 10-15 percet vesz igénybe.</p>","32","","","","","","","","","","","","","","","","",""
"html-keyboard-response","5","43965","0.0-2.0-3.0-0.0","18461.5","","","<p>Az első részben tárgyakat lát majd a képernyőn, egymás után fognak megjelenni.<br>Az Ön feladata eldönteni, hogy a tárgyak <i>beltéri vagy kültéri</i> tárgyak-e.</p>						   <p>Amennyiben a tárgyat általában beltéren látja, nyomja le a <b>C</b> billentyűt. Amennyiben a tárgyat általában kültéren látja, nyomja le az <b>M</b> billentyűt.</p>						   <p>Ebben a feladatban nincsen mindig egyértelműen jó megoldás. Válaszoljon legjobb tudása szerint. A válaszadásra 2 másodperce lesz.","32","","","","","","","","","","","","","","","","",""
"html-keyboard-response","6","45967","0.0-2.0-3.0-1.0","null","","","<p>Kezdődik a gyakorlás...</p>","null","","","","","","","","","","","","","","","","",""
"image-keyboard-response","7","47972","0.0-2.0-4.0-0.0","1242.0999999046326","","","stimuli/Set_2_rs/165b.jpg","77","-","outdoor","","","","","","","","","","","","","","",""
"html-keyboard-response","8","50237","0.0-2.0-4.0-1.0","1762.5","","","<p>Az Ön válasza:</p><p>Kültéri.</p>","32","","","","","","","","","","","","","","","","",""
"image-keyboard-response","9","52241","0.0-2.0-4.0-0.1","1260.9000000953674","","","stimuli/Set_2_rs/034a.jpg","67","-","indoor","","","","","","","","","","","","","","",""
"html-keyboard-response","10","53629","0.0-2.0-4.0-1.1","886.0999999046326","","","<p>Az Ön válasza:</p><p>Beltéri.</p>","32","","","","","","","","","","","","","","","","",""
"image-keyboard-response","11","55631","0.0-2.0-4.0-0.2","1406.5","","","stimuli/Set_2_rs/049a.jpg","77","SL","outdoor","","","","","","","","","","","","","","",""
"html-keyboard-response","12","56972","0.0-2.0-4.0-1.2","839.4000000953674","","","<p>Az Ön válasza:</p><p>Kültéri.</p>","32","","","","","","","","","","","","","","","","",""
"image-keyboard-response","13","58976","0.0-2.0-4.0-0.3","1261.7000002861023","","","stimuli/Set_2_rs/028a.jpg","67","SR","indoor","","","","","","","","","","","","","","",""
"html-keyboard-response","14","59804","0.0-2.0-4.0-1.3","326.5","","","<p>Az Ön válasza:</p><p>Beltéri.</p>","32","","","","","","","","","","","","","","","","",""
"image-keyboard-response","15","61807","0.0-2.0-4.0-0.4","1246.2999997138977","","","stimuli/Set_2_rs/135a.jpg","67","SL","indoor","","","","","","","","","","","","","","",""
"html-keyboard-response","16","63084","0.0-2.0-4.0-1.4","775.5999999046326","","","<p>Az Ön válasza:</p><p>Beltéri.</p>","32","","","","","","","","","","","","","","","","",""
"image-keyboard-response","17","65089","0.0-2.0-4.0-0.5","1645.7999997138977","","","stimuli/Set_2_rs/137a.jpg","67","SR","indoor","","","","","","","","","","","","","","",""
"html-keyboard-response","18","66396","0.0-2.0-4.0-1.5","805.5999999046326","","","<p>Az Ön válasza:</p><p>Beltéri.</p>","32","","","","","","","","","","","","","","","","",""
"html-keyboard-response","19","73964","0.0-2.0-5.0-0.0","7566.5","","","<p>Ez volt a gyakorlás. A feladat következik. A feladat alatt már nem kap visszajelzést.</p>","32","","","","","","","","","","","","","","","","",""
"html-keyboard-response","20","75966","0.0-2.0-5.0-1.0","null","","","<p>Kezdődik a feladat...</p>","null","","","","","","","","","","","","","","","","",""
"image-keyboard-response","21","78470","0.0-2.0-6.0-0.0","1228.2000002861023","","","stimuli/Set_1_rs/157a.jpg","67","","indoor","SR","","","","","","","","","","","","","",""
"image-keyboard-response","22","80973","0.0-2.0-6.0-0.1","1235.6000003814697","","","stimuli/Set_1_rs/009a.jpg","67","","indoor","SR","","","","","","","","","","","","","",""
"image-keyboard-response","23","83476","0.0-2.0-6.0-0.2","1405.4000000953674","","","stimuli/Set_1_rs/059a.jpg","77","","outdoor","SL","","","","","","","","","","","","","",""
"image-keyboard-response","24","85978","0.0-2.0-6.0-0.3","1910.5999999046326","","","stimuli/Set_1_rs/024a.jpg","67","","indoor","SR","","","","","","","","","","","","","",""
"image-keyboard-response","25","88481","0.0-2.0-6.0-0.4","1855.4000000953674","","","stimuli/Set_1_rs/101a.jpg","67","","indoor","SL","","","","","","","","","","","","","",""
"image-keyboard-response","26","90984","0.0-2.0-6.0-0.5","1177.1999998092651","","","stimuli/Set_1_rs/137a.jpg","77","","outdoor","SR","","","","","","","","","","","","","",""
"image-keyboard-response","27","93486","0.0-2.0-6.0-0.6","1314.3999996185303","","","stimuli/Set_1_rs/011a.jpg","67","","indoor","SL","","","","","","","","","","","","","",""
"image-keyboard-response","28","95989","0.0-2.0-6.0-0.7","1323.6000003814697","","","stimuli/Set_1_rs/128a.jpg","67","","indoor","SL","","","","","","","","","","","","","",""
"image-keyboard-response","29","98492","0.0-2.0-6.0-0.8","1476.9000000953674","","","stimuli/Set_1_rs/083a.jpg","67","","indoor","SL","","","","","","","","","","","","","",""
"image-keyboard-response","30","100994","0.0-2.0-6.0-0.9","1533.9000000953674","","","stimuli/Set_1_rs/136a.jpg","67","","indoor","SR","","","","","","","","","","","","","",""
"image-keyboard-response","31","103497","0.0-2.0-6.0-0.10","1384","","","stimuli/Set_1_rs/103a.jpg","67","","indoor","SL","","","","","","","","","","","","","",""
"image-keyboard-response","32","106000","0.0-2.0-6.0-0.11","1296.7000002861023","","","stimuli/Set_1_rs/086a.jpg","67","","indoor","SR","","","","","","","","","","","","","",""
"image-keyboard-response","33","108503","0.0-2.0-6.0-0.12","1594","","","stimuli/Set_1_rs/099a.jpg","77","","outdoor","SL","","","","","","","","","","","","","",""
"image-keyboard-response","34","111006","0.0-2.0-6.0-0.13","1778.6000003814697","","","stimuli/Set_1_rs/178a.jpg","67","","indoor","SL","","","","","","","","","","","","","",""
"image-keyboard-response","35","113509","0.0-2.0-6.0-0.14","1499.9000000953674","","","stimuli/Set_1_rs/134a.jpg","67","","indoor","SL","","","","","","","","","","","","","",""
"image-keyboard-response","36","116011","0.0-2.0-6.0-0.15","1765.5999999046326","","","stimuli/Set_1_rs/156a.jpg","67","","indoor","SL","","","","","","","","","","","","","",""
"image-keyboard-response","37","118514","0.0-2.0-6.0-0.16","1502.6999998092651","","","stimuli/Set_1_rs/054a.jpg","77","","outdoor","SR","","","","","","","","","","","","","",""
"image-keyboard-response","38","121017","0.0-2.0-6.0-0.17","1768.4000000953674","","","stimuli/Set_1_rs/092a.jpg","77","","outdoor","SL","","","","","","","","","","","","","",""
"image-keyboard-response","39","123519","0.0-2.0-6.0-0.18","1825.5999999046326","","","stimuli/Set_1_rs/031a.jpg","67","","indoor","SL","","","","","","","","","","","","","",""
"image-keyboard-response","40","126022","0.0-2.0-6.0-0.19","1514.5999999046326","","","stimuli/Set_1_rs/013a.jpg","67","","indoor","SL","","","","","","","","","","","","","",""
"image-keyboard-response","41","128524","0.0-2.0-6.0-0.20","1683.1999998092651","","","stimuli/Set_1_rs/075a.jpg","77","","outdoor","SL","","","","","","","","","","","","","",""
"image-keyboard-response","42","131026","0.0-2.0-6.0-0.21","1597.5999999046326","","","stimuli/Set_1_rs/150a.jpg","67","","indoor","SR","","","","","","","","","","","","","",""
"image-keyboard-response","43","133527","0.0-2.0-6.0-0.22","1111.8000001907349","","","stimuli/Set_1_rs/094a.jpg","67","","indoor","SL","","","","","","","","","","","","","",""
"image-keyboard-response","44","136029","0.0-2.0-6.0-0.23","1010.5999999046326","","","stimuli/Set_1_rs/090a.jpg","77","","outdoor","SL","","","","","","","","","","","","","",""
"image-keyboard-response","45","138532","0.0-2.0-6.0-0.24","1628","","","stimuli/Set_1_rs/192a.jpg","67","","indoor","SR","","","","","","","","","","","","","",""
"image-keyboard-response","46","141033","0.0-2.0-6.0-0.25","1590","","","stimuli/Set_1_rs/116a.jpg","77","","outdoor","SL","","","","","","","","","","","","","",""
"image-keyboard-response","47","143534","0.0-2.0-6.0-0.26","1664.5999999046326","","","stimuli/Set_1_rs/044a.jpg","67","","indoor","SR","","","","","","","","","","","","","",""
"image-keyboard-response","48","146036","0.0-2.0-6.0-0.27","1723.3000001907349","","","stimuli/Set_1_rs/114a.jpg","67","","indoor","SL","","","","","","","","","","","","","",""
"image-keyboard-response","49","148538","0.0-2.0-6.0-0.28","1556.9000000953674","","","stimuli/Set_1_rs/112a.jpg","77","","outdoor","SR","","","","","","","","","","","","","",""
"image-keyboard-response","50","151041","0.0-2.0-6.0-0.29","2015.5","","","stimuli/Set_1_rs/052a.jpg","77","","outdoor","SL","","","","","","","","","","","","","",""
"image-keyboard-response","51","153543","0.0-2.0-6.0-0.30","1320.3999996185303","","","stimuli/Set_1_rs/058a.jpg","67","","indoor","SR","","","","","","","","","","","","","",""
"image-keyboard-response","52","156045","0.0-2.0-6.0-0.31","1442.2999997138977","","","stimuli/Set_1_rs/023a.jpg","77","","outdoor","SL","","","","","","","","","","","","","",""
"image-keyboard-response","53","158548","0.0-2.0-6.0-0.32","1451.9000000953674","","","stimuli/Set_1_rs/030a.jpg","77","","outdoor","SR","","","","","","","","","","","","","",""
"image-keyboard-response","54","161049","0.0-2.0-6.0-0.33","1477.3999996185303","","","stimuli/Set_1_rs/091a.jpg","67","","indoor","SR","","","","","","","","","","","","","",""
"image-keyboard-response","55","163552","0.0-2.0-6.0-0.34","1872.0999999046326","","","stimuli/Set_1_rs/147a.jpg","67","","indoor","SR","","","","","","","","","","","","","",""
"image-keyboard-response","56","166053","0.0-2.0-6.0-0.35","1065.7999997138977","","","stimuli/Set_1_rs/063a.jpg","77","","outdoor","SR","","","","","","","","","","","","","",""
"image-keyboard-response","57","168555","0.0-2.0-6.0-0.36","1219.5999999046326","","","stimuli/Set_1_rs/040a.jpg","77","","outdoor","SR","","","","","","","","","","","","","",""
"image-keyboard-response","58","171057","0.0-2.0-6.0-0.37","1358.2999997138977","","","stimuli/Set_1_rs/038a.jpg","67","","indoor","SR","","","","","","","","","","","","","",""
"image-keyboard-response","59","173559","0.0-2.0-6.0-0.38","1528.1999998092651","","","stimuli/Set_1_rs/100a.jpg","67","","indoor","SL","","","","","","","","","","","","","",""
"image-keyboard-response","60","176061","0.0-2.0-6.0-0.39","1698.1999998092651","","","stimuli/Set_1_rs/109a.jpg","77","","outdoor","SR","","","","","","","","","","","","","",""
"image-keyboard-response","61","178564","0.0-2.0-6.0-0.40","1659.5999999046326","","","stimuli/Set_1_rs/191a.jpg","67","","indoor","SR","","","","","","","","","","","","","",""
"image-keyboard-response","62","181065","0.0-2.0-6.0-0.41","1750.3000001907349","","","stimuli/Set_1_rs/061a.jpg","67","","indoor","SL","","","","","","","","","","","","","",""
"image-keyboard-response","63","183568","0.0-2.0-6.0-0.42","1584.4000000953674","","","stimuli/Set_1_rs/162a.jpg","67","","indoor","SR","","","","","","","","","","","","","",""
"image-keyboard-response","64","186070","0.0-2.0-6.0-0.43","1658.4000000953674","","","stimuli/Set_1_rs/046a.jpg","67","","indoor","SR","","","","","","","","","","","","","",""
"image-keyboard-response","65","188572","0.0-2.0-6.0-0.44","1283.5","","","stimuli/Set_1_rs/155a.jpg","77","","outdoor","SL","","","","","","","","","","","","","",""
"image-keyboard-response","66","191073","0.0-2.0-6.0-0.45","1614","","","stimuli/Set_1_rs/010a.jpg","67","","indoor","SR","","","","","","","","","","","","","",""
"image-keyboard-response","67","193575","0.0-2.0-6.0-0.46","1768.7000002861023","","","stimuli/Set_1_rs/142a.jpg","67","","indoor","SR","","","","","","","","","","","","","",""
"image-keyboard-response","68","196077","0.0-2.0-6.0-0.47","1523","","","stimuli/Set_1_rs/045a.jpg","67","","indoor","SL","","","","","","","","","","","","","",""
"image-keyboard-response","69","198579","0.0-2.0-6.0-0.48","1532.2999997138977","","","stimuli/Set_1_rs/070a.jpg","77","","outdoor","SR","","","","","","","","","","","","","",""
"image-keyboard-response","70","201082","0.0-2.0-6.0-0.49","1462.0999999046326","","","stimuli/Set_1_rs/022a.jpg","67","","indoor","SL","","","","","","","","","","","","","",""
"image-keyboard-response","71","203584","0.0-2.0-6.0-0.50","1695.3999996185303","","","stimuli/Set_1_rs/021a.jpg","67","","indoor","SR","","","","","","","","","","","","","",""
"image-keyboard-response","72","206086","0.0-2.0-6.0-0.51","1529.8000001907349","","","stimuli/Set_1_rs/098a.jpg","67","","indoor","SL","","","","","","","","","","","","","",""
"image-keyboard-response","73","208589","0.0-2.0-6.0-0.52","1683.5","","","stimuli/Set_1_rs/008a.jpg","67","","indoor","SL","","","","","","","","","","","","","",""
"image-keyboard-response","74","211090","0.0-2.0-6.0-0.53","1724.5","","","stimuli/Set_1_rs/012a.jpg","67","","indoor","SL","","","","","","","","","","","","","",""
"image-keyboard-response","75","213592","0.0-2.0-6.0-0.54","1159.2999997138977","","","stimuli/Set_1_rs/153a.jpg","77","","outdoor","SR","","","","","","","","","","","","","",""
"image-keyboard-response","76","216094","0.0-2.0-6.0-0.55","1409.0999999046326","","","stimuli/Set_1_rs/068a.jpg","67","","indoor","SL","","","","","","","","","","","","","",""
"image-keyboard-response","77","218596","0.0-2.0-6.0-0.56","1371.3999996185303","","","stimuli/Set_1_rs/140a.jpg","67","","indoor","SL","","","","","","","","","","","","","",""
"image-keyboard-response","78","221098","0.0-2.0-6.0-0.57","1381.0999999046326","","","stimuli/Set_1_rs/029a.jpg","67","","indoor","SR","","","","","","","","","","","","","",""
"image-keyboard-response","79","223600","0.0-2.0-6.0-0.58","1567.6999998092651","","","stimuli/Set_1_rs/049a.jpg","77","","outdoor","SR","","","","","","","","","","","","","",""
"image-keyboard-response","80","226101","0.0-2.0-6.0-0.59","1129.8000001907349","","","stimuli/Set_1_rs/180a.jpg","67","","indoor","SR","","","","","","","","","","","","","",""
"image-keyboard-response","81","228604","0.0-2.0-6.0-0.60","1379.5999999046326","","","stimuli/Set_1_rs/033a.jpg","67","","indoor","SL","","","","","","","","","","","","","",""
"image-keyboard-response","82","231106","0.0-2.0-6.0-0.61","1661.8000001907349","","","stimuli/Set_1_rs/119a.jpg","77","","outdoor","SL","","","","","","","","","","","","","",""
"image-keyboard-response","83","233607","0.0-2.0-6.0-0.62","1207.7000002861023","","","stimuli/Set_1_rs/118a.jpg","77","","outdoor","SR","","","","","","","","","","","","","",""
"image-keyboard-response","84","236110","0.0-2.0-6.0-0.63","1266.4000000953674","","","stimuli/Set_1_rs/107a.jpg","77","","outdoor","SR","","","","","","","","","","","","","",""
"html-keyboard-response","85","278042","0.0-2.0-7.0","41931.90000009537","","","<p>Vége a feladat első részének. Tartson egy pár perces szünetet.</p>","32","","","","","","","","","","","","","","","","",""
"html-keyboard-response","86","296426","0.0-2.0-8.0-0.0","18382.5","","","<p>A következőkben ismét tárgyak jelennek majd meg a képernyőn, egymás után.<br>Az Ön feladata eldönteni, látta-e már ezeket a tárgyakat a vizsgálat első felében.</p>		        			<p>Amennyiben pontosan ugyanezt a tárgyat látta (a tárgy <i>régi</i>), nyomja le a <b>C</b> billentyűt.</p>		        			<p>Amennyiben hasonló tárgyat látott (a tárgy <i>hasonló</i>), nyomja le a <b>B</b> billentyűt.</p>		        			<p>Amennyiben nem látta ezt a tárgyat az első részben (a tárgy <i>új</i>), nyomja le az <b>M</b> billentyűt.</p>","32","","","","","","","","","","","","","","","","",""
"html-keyboard-response","87","298427","0.0-2.0-8.0-1.0","null","","","<p>Kezdődik a gyakorlás...</p>","null","","","","","","","","","","","","","","","","",""
"image-keyboard-response","88","302430","0.0-2.0-9.0-0.0","1788.0999999046326","","","stimuli/Set_2_rs/049b.jpg","67","","","TL","l","false","o","","","","","","","","","","",""
"html-keyboard-response","89","308169","0.0-2.0-9.0-1.0","5738.199999809265","","","<p>A helyes válasz: Hasonló.</p><p>Az Ön válasza: Régi.</p>","32","","","","","","","","","","","","","","","","",""
"image-keyboard-response","90","312173","0.0-2.0-9.0-0.1","1501.6999998092651","","","stimuli/Set_2_rs/018b.jpg","77","","","TF","n","true","n","","","","","","","","","","",""
"html-keyboard-response","91","313353","0.0-2.0-9.0-1.1","1179.0999999046326","","","<p>A helyes válasz: Új.</p><p>Az Ön válasza: Új.</p>","32","","","","","","","","","","","","","","","","",""
"image-keyboard-response","92","317356","0.0-2.0-9.0-0.2","1982.0999999046326","","","stimuli/Set_2_rs/028a.jpg","67","","","TR","o","true","o","","","","","","","","","","",""
"html-keyboard-response","93","318169","0.0-2.0-9.0-1.2","812.0999999046326","","","<p>A helyes válasz: Régi.</p><p>Az Ön válasza: Régi.</p>","32","","","","","","","","","","","","","","","","",""
"image-keyboard-response","94","322171","0.0-2.0-9.0-0.3","1518.4000000953674","","","stimuli/Set_2_rs/137a.jpg","67","","","TR","o","true","o","","","","","","","","","","",""
"html-keyboard-response","95","322905","0.0-2.0-9.0-1.3","732.7000002861023","","","<p>A helyes válasz: Régi.</p><p>Az Ön válasza: Régi.</p>","32","","","","","","","","","","","","","","","","",""
"image-keyboard-response","96","326908","0.0-2.0-9.0-0.4","2045.9000000953674","","","stimuli/Set_2_rs/135b.jpg","67","","","TL","l","false","o","","","","","","","","","","",""
"html-keyboard-response","97","328297","0.0-2.0-9.0-1.4","1388","","","<p>A helyes válasz: Hasonló.</p><p>Az Ön válasza: Régi.</p>","32","","","","","","","","","","","","","","","","",""
"image-keyboard-response","98","332300","0.0-2.0-9.0-0.5","1646.4000000953674","","","stimuli/Set_2_rs/019a.jpg","77","","","TF","n","true","n","","","","","","","","","","",""
"html-keyboard-response","99","333017","0.0-2.0-9.0-1.5","716.3000001907349","","","<p>A helyes válasz: Új.</p><p>Az Ön válasza: Új.</p>","32","","","","","","","","","","","","","","","","",""
"html-keyboard-response","100","340266","0.0-2.0-10.0-0.0","7247.300000190735","","","<p>Ez volt a gyakorlás. A feladat következik. A feladat alatt már nem kap visszajelzést.</p>","32","","","","","","","","","","","","","","","","",""
"html-keyboard-response","101","342266","0.0-2.0-10.0-1.0","null","","","<p>Kezdődik a feladat...</p>","null","","","","","","","","","","","","","","","","",""
"image-keyboard-response","102","346769","0.0-2.0-11.0-0.0","2316.9000000953674","","","stimuli/Set_1_rs/181a.jpg","66","","","TF","n","false","s","","","","","","","","","","",""
"image-keyboard-response","103","351272","0.0-2.0-11.0-0.1","1349.9000000953674","","","stimuli/Set_1_rs/152a.jpg","77","","","TF","n","true","n","","","","","","","","","","",""
"image-keyboard-response","104","355775","0.0-2.0-11.0-0.2","1327.0999999046326","","","stimuli/Set_1_rs/090b.jpg","66","","","TL","s","true","s","","","","","","","","","","",""
"image-keyboard-response","105","360278","0.0-2.0-11.0-0.3","1208","","","stimuli/Set_1_rs/126a.jpg","77","","","TF","n","true","n","","","","","","","","","","",""
"image-keyboard-response","106","364781","0.0-2.0-11.0-0.4","1936.7000002861023","","","stimuli/Set_1_rs/068b.jpg","67","","","TL","s","false","o","","","","","","","","","","",""
"image-keyboard-response","107","369284","0.0-2.0-11.0-0.5","1513.9000000953674","","","stimuli/Set_1_rs/054a.jpg","67","","","TR","o","true","o","","","","","","","","","","",""
"image-keyboard-response","108","373788","0.0-2.0-11.0-0.6","1042.4000000953674","","","stimuli/Set_1_rs/162a.jpg","67","","","TR","o","true","o","","","","","","","","","","",""
"image-keyboard-response","109","378291","0.0-2.0-11.0-0.7","1227","","","stimuli/Set_1_rs/019a.jpg","77","","","TF","n","true","n","","","","","","","","","","",""
"image-keyboard-response","110","382794","0.0-2.0-11.0-0.8","1444.2000002861023","","","stimuli/Set_1_rs/119b.jpg","66","","","TL","s","true","s","","","","","","","","","","",""
"image-keyboard-response","111","387297","0.0-2.0-11.0-0.9","1324.8999996185303","","","stimuli/Set_1_rs/052b.jpg","66","","","TL","s","true","s","","","","","","","","","","",""
"image-keyboard-response","112","391799","0.0-2.0-11.0-0.10","1285.6999998092651","","","stimuli/Set_1_rs/135a.jpg","77","","","TF","n","true","n","","","","","","","","","","",""
"image-keyboard-response","113","396303","0.0-2.0-11.0-0.11","1311","","","stimuli/Set_1_rs/004a.jpg","77","","","TF","n","true","n","","","","","","","","","","",""
"image-keyboard-response","114","400806","0.0-2.0-11.0-0.12","1095.4000000953674","","","stimuli/Set_1_rs/072a.jpg","77","","","TF","n","true","n","","","","","","","","","","",""
"image-keyboard-response","115","405310","0.0-2.0-11.0-0.13","1216.3000001907349","","","stimuli/Set_1_rs/028a.jpg","77","","","TF","n","true","n","","","","","","","","","","",""
"image-keyboard-response","116","409812","0.0-2.0-11.0-0.14","1432.9000000953674","","","stimuli/Set_1_rs/091a.jpg","67","","","TR","o","true","o","","","","","","","","","","",""
"image-keyboard-response","117","414316","0.0-2.0-11.0-0.15","1634","","","stimuli/Set_1_rs/108a.jpg","77","","","TF","n","true","n","","","","","","","","","","",""
"image-keyboard-response","118","418819","0.0-2.0-11.0-0.16","2442.800000190735","","","stimuli/Set_1_rs/146a.jpg","77","","","TF","n","true","n","","","","","","","","","","",""
"image-keyboard-response","119","423322","0.0-2.0-11.0-0.17","1523.1999998092651","","","stimuli/Set_1_rs/013b.jpg","66","","","TL","s","true","s","","","","","","","","","","",""
"image-keyboard-response","120","427825","0.0-2.0-11.0-0.18","2076.3999996185303","","","stimuli/Set_1_rs/141a.jpg","77","","","TF","n","true","n","","","","","","","","","","",""
"image-keyboard-response","121","432328","0.0-2.0-11.0-0.19","1189","","","stimuli/Set_1_rs/156b.jpg","67","","","TL","s","false","o","","","","","","","","","","",""
"image-keyboard-response","122","436831","0.0-2.0-11.0-0.20","1389.5999999046326","","","stimuli/Set_1_rs/024a.jpg","67","","","TR","o","true","o","","","","","","","","","","",""
"image-keyboard-response","123","441334","0.0-2.0-11.0-0.21","1047","","","stimuli/Set_1_rs/046a.jpg","67","","","TR","o","true","o","","","","","","","","","","",""
"image-keyboard-response","124","445837","0.0-2.0-11.0-0.22","2240.199999809265","","","stimuli/Set_1_rs/100b.jpg","67","","","TL","s","false","o","","","","","","","","","","",""
"image-keyboard-response","125","450340","0.0-2.0-11.0-0.23","1240.5999999046326","","","stimuli/Set_1_rs/080a.jpg","77","","","TF","n","true","n","","","","","","","","","","",""
"image-keyboard-response","126","454843","0.0-2.0-11.0-0.24","1681.5","","","stimuli/Set_1_rs/094b.jpg","66","","","TL","s","true","s","","","","","","","","","","",""
"image-keyboard-response","127","459346","0.0-2.0-11.0-0.25","2442.9000000953674","","","stimuli/Set_1_rs/190a.jpg","66","","","TF","n","false","s","","","","","","","","","","",""
"image-keyboard-response","128","463849","0.0-2.0-11.0-0.26","1027.5","","","stimuli/Set_1_rs/137a.jpg","67","","","TR","o","true","o","","","","","","","","","","",""
"image-keyboard-response","129","468352","0.0-2.0-11.0-0.27","924.5","","","stimuli/Set_1_rs/180a.jpg","67","","","TR","o","true","o","","","","","","","","","","",""
"image-keyboard-response","130","472855","0.0-2.0-11.0-0.28","2741.7000002861023","","","stimuli/Set_1_rs/134b.jpg","67","","","TL","s","false","o","","","","","","","","","","",""
"image-keyboard-response","131","477357","0.0-2.0-11.0-0.29","1390.8999996185303","","","stimuli/Set_1_rs/088a.jpg","77","","","TF","n","true","n","","","","","","","","","","",""
"image-keyboard-response","132","481861","0.0-2.0-11.0-0.30","2215.9000000953674","","","stimuli/Set_1_rs/165a.jpg","77","","","TF","n","true","n","","","","","","","","","","",""
"image-keyboard-response","133","486364","0.0-2.0-11.0-0.31","1552.7999997138977","","","stimuli/Set_1_rs/075b.jpg","66","","","TL","s","true","s","","","","","","","","","","",""
"image-keyboard-response","134","490869","0.0-2.0-11.0-0.32","1431.6999998092651","","","stimuli/Set_1_rs/191a.jpg","67","","","TR","o","true","o","","","","","","","","","","",""
"image-keyboard-response","135","495372","0.0-2.0-11.0-0.33","1696.3000001907349","","","stimuli/Set_1_rs/112a.jpg","67","","","TR","o","true","o","","","","","","","","","","",""
"image-keyboard-response","136","499875","0.0-2.0-11.0-0.34","1177.5","","","stimuli/Set_1_rs/171a.jpg","77","","","TF","n","true","n","","","","","","","","","","",""
"image-keyboard-response","137","504378","0.0-2.0-11.0-0.35","1361.8000001907349","","","stimuli/Set_1_rs/021a.jpg","67","","","TR","o","true","o","","","","","","","","","","",""
"image-keyboard-response","138","508881","0.0-2.0-11.0-0.36","1962.9000000953674","","","stimuli/Set_1_rs/157a.jpg","67","","","TR","o","true","o","","","","","","","","","","",""
"image-keyboard-response","139","513385","0.0-2.0-11.0-0.37","2132.1000003814697","","","stimuli/Set_1_rs/059b.jpg","66","","","TL","s","true","s","","","","","","","","","","",""
"image-keyboard-response","140","517888","0.0-2.0-11.0-0.38","1788.0999999046326","","","stimuli/Set_1_rs/153a.jpg","67","","","TR","o","true","o","","","","","","","","","","",""
"image-keyboard-response","141","522391","0.0-2.0-11.0-0.39","1813.1999998092651","","","stimuli/Set_1_rs/002a.jpg","77","","","TF","n","true","n","","","","","","","","","","",""
"image-keyboard-response","142","526894","0.0-2.0-11.0-0.40","1294.0999999046326","","","stimuli/Set_1_rs/041a.jpg","77","","","TF","n","true","n","","","","","","","","","","",""
"image-keyboard-response","143","531397","0.0-2.0-11.0-0.41","2503.0999999046326","","","stimuli/Set_1_rs/012b.jpg","66","","","TL","s","true","s","","","","","","","","","","",""
"image-keyboard-response","144","535900","0.0-2.0-11.0-0.42","1615.8000001907349","","","stimuli/Set_1_rs/083b.jpg","67","","","TL","s","false","o","","","","","","","","","","",""
"image-keyboard-response","145","540403","0.0-2.0-11.0-0.43","2488.5","","","stimuli/Set_1_rs/051a.jpg","77","","","TF","n","true","n","","","","","","","","","","",""
"image-keyboard-response","146","544905","0.0-2.0-11.0-0.44","1618.2000002861023","","","stimuli/Set_1_rs/168a.jpg","77","","","TF","n","true","n","","","","","","","","","","",""
"image-keyboard-response","147","549409","0.0-2.0-11.0-0.45","1595.2000002861023","","","stimuli/Set_1_rs/155b.jpg","66","","","TL","s","true","s","","","","","","","","","","",""
"image-keyboard-response","148","553912","0.0-2.0-11.0-0.46","2051.4000000953674","","","stimuli/Set_1_rs/045b.jpg","66","","","TL","s","true","s","","","","","","","","","","",""
"image-keyboard-response","149","558416","0.0-2.0-11.0-0.47","1291.9000000953674","","","stimuli/Set_1_rs/031b.jpg","66","","","TL","s","true","s","","","","","","","","","","",""
"image-keyboard-response","150","562918","0.0-2.0-11.0-0.48","980.7999997138977","","","stimuli/Set_1_rs/136a.jpg","67","","","TR","o","true","o","","","","","","","","","","",""
"image-keyboard-response","151","567422","0.0-2.0-11.0-0.49","1630.3999996185303","","","stimuli/Set_1_rs/053a.jpg","77","","","TF","n","true","n","","","","","","","","","","",""
"image-keyboard-response","152","571925","0.0-2.0-11.0-0.50","2118.9000000953674","","","stimuli/Set_1_rs/061b.jpg","66","","","TL","s","true","s","","","","","","","","","","",""
"image-keyboard-response","153","576428","0.0-2.0-11.0-0.51","2095.5999999046326","","","stimuli/Set_1_rs/062a.jpg","77","","","TF","n","true","n","","","","","","","","","","",""
"image-keyboard-response","154","580931","0.0-2.0-11.0-0.52","1144.4000000953674","","","stimuli/Set_1_rs/009a.jpg","67","","","TR","o","true","o","","","","","","","","","","",""
"image-keyboard-response","155","585434","0.0-2.0-11.0-0.53","2337.800000190735","","","stimuli/Set_1_rs/099b.jpg","66","","","TL","s","true","s","","","","","","","","","","",""
"image-keyboard-response","156","589938","0.0-2.0-11.0-0.54","1066.3000001907349","","","stimuli/Set_1_rs/030a.jpg","67","","","TR","o","true","o","","","","","","","","","","",""
"image-keyboard-response","157","594440","0.0-2.0-11.0-0.55","1026.5999999046326","","","stimuli/Set_1_rs/029a.jpg","67","","","TR","o","true","o","","","","","","","","","","",""
"image-keyboard-response","158","598943","0.0-2.0-11.0-0.56","2220.2000002861023","","","stimuli/Set_1_rs/140b.jpg","67","","","TL","s","false","o","","","","","","","","","","",""
"image-keyboard-response","159","603446","0.0-2.0-11.0-0.57","1748.9000000953674","","","stimuli/Set_1_rs/182a.jpg","77","","","TF","n","true","n","","","","","","","","","","",""
"image-keyboard-response","160","607949","0.0-2.0-11.0-0.58","2446.300000190735","","","stimuli/Set_1_rs/151a.jpg","77","","","TF","n","true","n","","","","","","","","","","",""
"image-keyboard-response","161","612453","0.0-2.0-11.0-0.59","2166.2999997138977","","","stimuli/Set_1_rs/142a.jpg","66","","","TR","o","false","s","","","","","","","","","","",""
"image-keyboard-response","162","616956","0.0-2.0-11.0-0.60","926.6999998092651","","","stimuli/Set_1_rs/070a.jpg","67","","","TR","o","true","o","","","","","","","","","","",""
"image-keyboard-response","163","621460","0.0-2.0-11.0-0.61","1639.5999999046326","","","stimuli/Set_1_rs/121a.jpg","77","","","TF","n","true","n","","","","","","","","","","",""
"image-keyboard-response","164","625963","0.0-2.0-11.0-0.62","1551.7000002861023","","","stimuli/Set_1_rs/008b.jpg","67","","","TL","s","false","o","","","","","","","","","","",""
"image-keyboard-response","165","630466","0.0-2.0-11.0-0.63","2200.9000000953674","","","stimuli/Set_1_rs/092b.jpg","66","","","TL","s","true","s","","","","","","","","","","",""
"image-keyboard-response","166","634968","0.0-2.0-11.0-0.64","1186","","","stimuli/Set_1_rs/192a.jpg","67","","","TR","o","true","o","","","","","","","","","","",""
"image-keyboard-response","167","639471","0.0-2.0-11.0-0.65","1355.3000001907349","","","stimuli/Set_1_rs/147a.jpg","67","","","TR","o","true","o","","","","","","","","","","",""
"image-keyboard-response","168","643975","0.0-2.0-11.0-0.66","1588.1000003814697","","","stimuli/Set_1_rs/032a.jpg","77","","","TF","n","true","n","","","","","","","","","","",""
"image-keyboard-response","169","648478","0.0-2.0-11.0-0.67","1980.5","","","stimuli/Set_1_rs/128b.jpg","66","","","TL","s","true","s","","","","","","","","","","",""
"image-keyboard-response","170","652981","0.0-2.0-11.0-0.68","2677.2999997138977","","","stimuli/Set_1_rs/186a.jpg","77","","","TF","n","true","n","","","","","","","","","","",""
"image-keyboard-response","171","657484","0.0-2.0-11.0-0.69","1214.5999999046326","","","stimuli/Set_1_rs/109a.jpg","67","","","TR","o","true","o","","","","","","","","","","",""
"image-keyboard-response","172","661987","0.0-2.0-11.0-0.70","2503.5999999046326","","","stimuli/Set_1_rs/160a.jpg","77","","","TF","n","true","n","","","","","","","","","","",""
"image-keyboard-response","173","666490","0.0-2.0-11.0-0.71","1360.2999997138977","","","stimuli/Set_1_rs/086a.jpg","67","","","TR","o","true","o","","","","","","","","","","",""
"image-keyboard-response","174","670993","0.0-2.0-11.0-0.72","2169.5999999046326","","","stimuli/Set_1_rs/023b.jpg","66","","","TL","s","true","s","","","","","","","","","","",""
"image-keyboard-response","175","675496","0.0-2.0-11.0-0.73","2738.300000190735","","","stimuli/Set_1_rs/114b.jpg","67","","","TL","s","false","o","","","","","","","","","","",""
"image-keyboard-response","176","679999","0.0-2.0-11.0-0.74","2891.1000003814697","","","stimuli/Set_1_rs/033b.jpg","66","","","TL","s","true","s","","","","","","","","","","",""
"image-keyboard-response","177","684501","0.0-2.0-11.0-0.75","916.4000000953674","","","stimuli/Set_1_rs/010a.jpg","67","","","TR","o","true","o","","","","","","","","","","",""
"image-keyboard-response","178","689004","0.0-2.0-11.0-0.76","1342.3000001907349","","","stimuli/Set_1_rs/150a.jpg","67","","","TR","o","true","o","","","","","","","","","","",""
"image-keyboard-response","179","693507","0.0-2.0-11.0-0.77","1159.0999999046326","","","stimuli/Set_1_rs/038a.jpg","67","","","TR","o","true","o","","","","","","","","","","",""
"image-keyboard-response","180","698010","0.0-2.0-11.0-0.78","1903.9000000953674","","","stimuli/Set_1_rs/022b.jpg","66","","","TL","s","true","s","","","","","","","","","","",""
"image-keyboard-response","181","702513","0.0-2.0-11.0-0.79","1593","","","stimuli/Set_1_rs/018a.jpg","77","","","TF","n","true","n","","","","","","","","","","",""
"image-keyboard-response","182","707016","0.0-2.0-11.0-0.80","1505.7999997138977","","","stimuli/Set_1_rs/081a.jpg","77","","","TF","n","true","n","","","","","","","","","","",""
"image-keyboard-response","183","711519","0.0-2.0-11.0-0.81","2138.9000000953674","","","stimuli/Set_1_rs/107a.jpg","66","","","TR","o","false","s","","","","","","","","","","",""
"image-keyboard-response","184","716021","0.0-2.0-11.0-0.82","1268.5","","","stimuli/Set_1_rs/101b.jpg","67","","","TL","s","false","o","","","","","","","","","","",""
"image-keyboard-response","185","720525","0.0-2.0-11.0-0.83","2013.9000000953674","","","stimuli/Set_1_rs/178b.jpg","66","","","TL","s","true","s","","","","","","","","","","",""
"image-keyboard-response","186","725028","0.0-2.0-11.0-0.84","2294.0999999046326","","","stimuli/Set_1_rs/103b.jpg","66","","","TL","s","true","s","","","","","","","","","","",""
"image-keyboard-response","187","729531","0.0-2.0-11.0-0.85","1758.7000002861023","","","stimuli/Set_1_rs/116b.jpg","67","","","TL","s","false","o","","","","","","","","","","",""
"image-keyboard-response","188","734034","0.0-2.0-11.0-0.86","2359.3999996185303","","","stimuli/Set_1_rs/122a.jpg","77","","","TF","n","true","n","","","","","","","","","","",""
"image-keyboard-response","189","738537","0.0-2.0-11.0-0.87","1728.5","","","stimuli/Set_1_rs/044a.jpg","67","","","TR","o","true","o","","","","","","","","","","",""
"image-keyboard-response","190","743039","0.0-2.0-11.0-0.88","1482","","","stimuli/Set_1_rs/049a.jpg","67","","","TR","o","true","o","","","","","","","","","","",""
"image-keyboard-response","191","747543","0.0-2.0-11.0-0.89","1315","","","stimuli/Set_1_rs/118a.jpg","67","","","TR","o","true","o","","","","","","","","","","",""
"image-keyboard-response","192","752046","0.0-2.0-11.0-0.90","2187.3999996185303","","","stimuli/Set_1_rs/040a.jpg","67","","","TR","o","true","o","","","","","","","","","","",""
"image-keyboard-response","193","756548","0.0-2.0-11.0-0.91","1716.5","","","stimuli/Set_1_rs/011b.jpg","67","","","TL","s","false","o","","","","","","","","","","",""
"image-keyboard-response","194","761051","0.0-2.0-11.0-0.92","2557.9000000953674","","","stimuli/Set_1_rs/087a.jpg","77","","","TF","n","true","n","","","","","","","","","","",""
"image-keyboard-response","195","765554","0.0-2.0-11.0-0.93","1463.0999999046326","","","stimuli/Set_1_rs/063a.jpg","67","","","TR","o","true","o","","","","","","","","","","",""
"image-keyboard-response","196","770057","0.0-2.0-11.0-0.94","1824.2000002861023","","","stimuli/Set_1_rs/098b.jpg","66","","","TL","s","true","s","","","","","","","","","","",""
"image-keyboard-response","197","774560","0.0-2.0-11.0-0.95","1961.5","","","stimuli/Set_1_rs/058a.jpg","67","","","TR","o","true","o","","","","","","","","","","",""
"html-keyboard-response","198","790868","0.0-3.0","16306.799999713898","","","<p>Vége a feladatnak. Köszönjük a részvételt!</p>","32","","","","","","","32","2","0","13","21","0","0","2","32","0.9411764705882353","0.5588235294117647"
