ID;AgeGroup;task;list;itemno;noun;adjective;stimtype;trialnum;response;reaction_time;confidence;confidence_rt;correctness;enc_pract_num;rec_pract_num
005704;OA;ENC_GYAK;4;3;sivatag;végtelen;TARG;1;None;;;;none;2;1
005704;OA;ENC_GYAK;4;5;hulladék;darabos;FOIL;2;None;;;;none;2;1
005704;OA;ENC_GYAK;4;6;karrier;termékeny;FOIL;3;None;;;;none;2;1
005704;OA;ENC_GYAK;4;1;színésznõ;tevékeny;TARG;4;None;;;;none;2;1
005704;OA;ENC_GYAK;4;4;retorika;ésszerû;FOIL;5;None;;;;none;2;1
005704;OA;ENC_GYAK;4;2;csokoládé;közönséges;TARG;6;None;;;;none;2;1
005704;OA;ENC_GYAK;4;4;retorika;ésszerû;FOIL;1;None;;;;none;2;1
005704;OA;ENC_GYAK;4;1;színésznõ;tevékeny;TARG;2;None;;;;none;2;1
005704;OA;ENC_GYAK;4;6;karrier;termékeny;FOIL;3;good;1,500279596;;;;2;1
005704;OA;ENC_GYAK;4;2;csokoládé;közönséges;TARG;4;good;1,557649915;;;;2;1
005704;OA;ENC_GYAK;4;3;sivatag;végtelen;TARG;5;no-good;1,616616636;;;;2;1
005704;OA;ENC_GYAK;4;5;hulladék;darabos;FOIL;6;no-good;1,839212827;;;;2;1
005704;OA;ENC;4;75;sütemény;születésnapi;TARG;1;good;1,463636064;;;;2;1
005704;OA;ENC;4;33;iránytû;hasznos;TARG;2;good;1,285193926;;;;2;1
005704;OA;ENC;4;62;gyulladás;fájdalmas;FOIL;3;good;1,093566933;;;;2;1
005704;OA;ENC;4;54;tartozás;nagymértékû;FOIL;4;no-good;1,34458455;;;;2;1
005704;OA;ENC;4;89;törmelék;építkezési;TARG;5;no-good;1,725979643;;;;2;1
005704;OA;ENC;4;27;párbeszéd;kötetlen;FOIL;6;good;1,758590962;;;;2;1
005704;OA;ENC;4;98;zarándok;keresztény;TARG;7;no-good;1,489491988;;;;2;1
005704;OA;ENC;4;110;hátrány;mentális;FOIL;8;no-good;1,600948386;;;;2;1
005704;OA;ENC;4;40;kesztyû;férfias;TARG;9;good;1,093703466;;;;2;1
005704;OA;ENC;4;89;ellenõr;közömbös;FOIL;10;no-good;1,408677297;;;;2;1
005704;OA;ENC;4;20;díszlet;színpadi;TARG;11;good;1,197977767;;;;2;1
005704;OA;ENC;4;17;csomagolás;ízléses;TARG;12;good;1,00299718;;;;2;1
005704;OA;ENC;4;26;vallomás;következetes;FOIL;13;good;1,867920691;;;;2;1
005704;OA;ENC;4;59;mûalkotás;korabeli;TARG;14;good;1,600136346;;;;2;1
005704;OA;ENC;4;30;ábrázolás;szokatlan;FOIL;15;good;0,928213859;;;;2;1
005704;OA;ENC;4;20;földrengés;sorozatos;FOIL;16;good;1,538252063;;;;2;1
005704;OA;ENC;4;7;aszfalt;hibátlan;TARG;17;no-good;1,199648188;;;;2;1
005704;OA;ENC;4;39;készpénz;csekély;TARG;18;no-good;1,486616723;;;;2;1
005704;OA;ENC;4;75;jutalom;kívánatos;FOIL;19;no-good;1,859615856;;;;2;1
005704;OA;ENC;4;52;magazin;tudományos;TARG;20;good;0,978275811;;;;2;1
005704;OA;ENC;4;108;vészhelyzet;idõjárási;FOIL;21;no-good;1,478236313;;;;2;1
005704;OA;ENC;4;7;testmozgás;speciális;FOIL;22;None;;;;none;2;1
005704;OA;ENC;4;79;szemüveg;kényelmes;TARG;23;good;0,899917459;;;;2;1
005704;OA;ENC;4;51;sorrend;szabályos;FOIL;24;good;1,215522636;;;;2;1
005704;OA;ENC;4;100;zöldség;rendszeres;TARG;25;no-good;1,389995696;;;;2;1
005704;OA;ENC;4;60;mûanyag;felesleges;TARG;26;no-good;1,504473533;;;;2;1
005704;OA;ENC;4;25;szekrény;kaotikus;FOIL;27;no-good;1,257423128;;;;2;1
005704;OA;ENC;4;117;megjegyzés;rosszindulatú;FOIL;28;good;1,261534959;;;;2;1
005704;OA;ENC;4;73;rémálom;szomorú;TARG;29;None;;;;none;2;1
005704;OA;ENC;4;71;pisztoly;törvénytelen;TARG;30;good;0,849006144;;;;2;1
005704;OA;ENC;4;65;alapanyag;folyékony;FOIL;31;good;1,795364495;;;;2;1
005704;OA;ENC;4;54;mellény;sportos;TARG;32;good;0,98631318;;;;2;1
005704;OA;ENC;4;67;oroszlán;nyugodt;TARG;33;good;0,876027413;;;;2;1
005704;OA;ENC;4;123;lázadás;széleskörû;FOIL;34;no-good;1,429351835;;;;2;1
005704;OA;ENC;4;32;szállítás;idõigényes;FOIL;35;good;1,38638552;;;;2;1
005704;OA;ENC;4;86;távirat;udvarias;TARG;36;good;1,770059987;;;;2;1
005704;OA;ENC;4;2;országrész;középsõ;FOIL;37;good;1,171369205;;;;2;1
005704;OA;ENC;4;84;útmutatás;szakszerû;FOIL;38;good;0,824361906;;;;2;1
005704;OA;ENC;4;46;kommentár;terjedelmes;TARG;39;no-good;1,367523534;;;;2;1
005704;OA;ENC;4;4;állatkert;egzotikus;TARG;40;good;1,146331853;;;;2;1
005704;OA;ENC;4;42;szerencse;viszonylagos;FOIL;41;good;1,447699726;;;;2;1
005704;OA;ENC;4;35;fenyegetés;írásbeli;FOIL;42;good;1,053952657;;;;2;1
005704;OA;ENC;4;32;horgász;balatoni;TARG;43;good;1,064921272;;;;2;1
005704;OA;ENC;4;107;üdvözlet;kölcsönös;FOIL;44;good;1,160918729;;;;2;1
005704;OA;ENC;4;43;kolbász;tonnányi;TARG;45;no-good;1,033197257;;;;2;1
005704;OA;ENC;4;10;barlang;lakatlan;TARG;46;good;0,974717263;;;;2;1
005704;OA;ENC;4;46;ügyintézés;zökkenõmentes;FOIL;47;good;1,390172348;;;;2;1
005704;OA;ENC;4;125;csemege;temérdek;FOIL;48;no-good;1,452052277;;;;2;1
005704;OA;ENC;4;76;szabadidõ;kellemes;TARG;49;good;0,898059188;;;;2;1
005704;OA;ENC;4;12;boríték;érvénytelen;TARG;50;good;1,760625262;;;;2;1
005704;OA;ENC;4;116;hazugság;kisebbik;FOIL;51;good;1,051169451;;;;2;1
005704;OA;ENC;4;64;napsütés;felhõtlen;TARG;52;good;1,051285456;;;;2;1
005704;OA;ENC;4;74;repülõjegy;érvényes;TARG;53;good;0,795837848;;;;2;1
005704;OA;ENC;4;21;frontember;lendületes;FOIL;54;no-good;1,161740722;;;;2;1
005704;OA;ENC;4;90;tudomány;mérnöki;TARG;55;good;1,117647937;;;;2;1
005704;OA;ENC;4;53;matrica;fizetõs;TARG;56;good;1,126309186;;;;2;1
005704;OA;ENC;4;31;nagykövet;befolyásos;FOIL;57;good;1,380933247;;;;2;1
005704;OA;ENC;4;91;fertõzés;hosszútávú;FOIL;58;good;1,029313395;;;;2;1
005704;OA;ENC;4;69;ösztöndíj;tanulmányi;TARG;59;good;0,998679773;;;;2;1
005704;OA;ENC;4;80;szerszám;trükkös;TARG;60;good;1,422693786;;;;2;1
005704;OA;ENC;4;29;nyereség;pillanatnyi;FOIL;61;no-good;1,184513317;;;;2;1
005704;OA;ENC;4;102;vetítés;farsangi;FOIL;62;no-good;1,379807088;;;;2;1
005704;OA;ENC;4;88;tévémûsor;közéleti;TARG;63;None;;;;none;2;1
005704;OA;ENC;4;15;küldemény;dobozos;FOIL;64;good;1,352969003;;;;2;1
005704;OA;ENC;4;43;kitüntetés;jelképes;FOIL;65;good;0,539155229;;;;2;1
005704;OA;ENC;4;35;kapitány;rutinos;TARG;66;good;1,801434118;;;;2;1
005704;OA;ENC;4;38;korosztály;szerencsés;FOIL;67;good;1,261799938;;;;2;1
005704;OA;ENC;4;57;monitor;kijelzõs;TARG;68;no-good;1,240687812;;;;2;1
005704;OA;ENC;4;81;színdarab;humoros;TARG;69;good;1,794320131;;;;2;1
005704;OA;ENC;4;99;államférfi;diszkrét;FOIL;70;no-good;1,3294192;;;;2;1
005704;OA;ENC;4;72;professzor;közgazdasági;TARG;71;good;1,147981126;;;;2;1
005704;OA;ENC;4;48;költészet;mágikus;TARG;72;no-good;1,481873858;;;;2;1
005704;OA;ENC;4;77;õrmester;méltatlan;FOIL;73;no-good;1,273081737;;;;2;1
005704;OA;ENC;4;21;díszterem;patinás;TARG;74;good;0,882800536;;;;2;1
005704;OA;ENC;4;9;barátnõ;középkorú;TARG;75;good;0,956801362;;;;2;1
005704;OA;ENC;4;114;tiltakozás;egyhangú;FOIL;76;no-good;1,572326983;;;;2;1
005704;OA;ENC;4;47;koponya;parányi;TARG;77;no-good;1,024327011;;;;2;1
005704;OA;ENC;4;37;képregény;izgalmas;TARG;78;no-good;1,557849893;;;;2;1
005704;OA;ENC;4;100;zaklatás;pszichés;FOIL;79;good;1,523739517;;;;2;1
005704;OA;ENC;4;30;háziorvos;körzeti;TARG;80;good;1,008259428;;;;2;1
005704;OA;ENC;4;42;kirándulás;hétvégi;TARG;81;good;1,422718977;;;;2;1
005704;OA;ENC;4;13;táplálék;elégséges;FOIL;82;good;1,262669826;;;;2;1
005704;OA;ENC;4;99;zeneszerzõ;nagyszerû;TARG;83;good;0,870298965;;;;2;1
005704;OA;ENC;4;79;szivárgás;fokozatos;FOIL;84;None;;;;none;2;1
005704;OA;ENC;4;59;sorsolás;helytelen;FOIL;85;no-good;1,300977248;;;;2;1
005704;OA;ENC;4;93;útlezárás;helyszíni;TARG;86;None;;;;none;2;1
005704;OA;ENC;4;18;olvasmány;gyermekkori;FOIL;87;good;0,906638643;;;;2;1
005704;OA;ENC;4;19;mellékutca;rendezetlen;FOIL;88;good;1,510280355;;;;2;1
005704;OA;ENC;4;61;mûemlék;természeti;TARG;89;no-good;1,496978251;;;;2;1
005704;OA;ENC;4;47;császár;tudatos;FOIL;90;no-good;1,184554681;;;;2;1
005704;OA;ENC;4;28;követelés;eredményes;FOIL;91;good;1,519053878;;;;2;1
005704;OA;ENC;4;2;albérlet;szegényes;TARG;92;no-good;1,624913384;;;;2;1
005704;OA;ENC;4;60;rosszullét;fizikai;FOIL;93;None;;;;none;2;1
005704;OA;ENC;4;6;ásványvíz;minõségi;TARG;94;no-good;1,204918833;;;;2;1
005704;OA;ENC;4;8;publicista;hiteles;FOIL;95;no-good;1,347177731;;;;2;1
005704;OA;ENC;4;81;mellékhatás;közvetett;FOIL;96;good;1,12477312;;;;2;1
005704;OA;ENC;4;96;ventilátor;masszív;TARG;97;no-good;1,395857566;;;;2;1
005704;OA;ENC;4;41;királynõ;szépséges;TARG;98;good;0,976953407;;;;2;1
005704;OA;ENC;4;33;parancs;vitathatatlan;FOIL;99;no-good;1,483839115;;;;2;1
005704;OA;ENC;4;101;diskurzus;társadalmi;FOIL;100;good;1,421027096;;;;2;1
005704;OA;ENC;4;68;osztályzat;közepes;TARG;1;good;1,324304058;;;;2;1
005704;OA;ENC;4;74;zûrzavar;érzelmi;FOIL;2;good;1,208268696;;;;2;1
005704;OA;ENC;4;45;kolostor;hajdani;TARG;3;no-good;1,147406384;;;;2;1
005704;OA;ENC;4;16;csillagász;figyelmes;TARG;4;no-good;1,116813504;;;;2;1
005704;OA;ENC;4;95;gyûlölet;mélységes;FOIL;5;good;1,338851437;;;;2;1
005704;OA;ENC;4;14;csecsemõ;egészséges;TARG;6;good;0,918788775;;;;2;1
005704;OA;ENC;4;3;alkohol;legális;TARG;7;good;1,000855271;;;;2;1
005704;OA;ENC;4;53;végeredmény;lehetséges;FOIL;8;good;1,199180433;;;;2;1
005704;OA;ENC;4;94;protokoll;sebészeti;FOIL;9;good;1,525680516;;;;2;1
005704;OA;ENC;4;23;étterem;elegáns;TARG;10;no-good;1,154218071;;;;2;1
005704;OA;ENC;4;18;diáklány;ártatlan;TARG;11;good;1,661575266;;;;2;1
005704;OA;ENC;4;78;dulakodás;szándékos;FOIL;12;good;1,37724252;;;;2;1
005704;OA;ENC;4;58;mutatvány;szánalmas;TARG;13;good;1,38607078;;;;2;1
005704;OA;ENC;4;24;irodaház;szemközti;FOIL;14;no-good;1,391303171;;;;2;1
005704;OA;ENC;4;48;nézõpont;kézenfekvõ;FOIL;15;no-good;1,942839611;;;;2;1
005704;OA;ENC;4;15;csengõhang;többféle;TARG;16;good;1,434639586;;;;2;1
005704;OA;ENC;4;70;pénztárca;ismeretlen;TARG;17;good;0,900028488;;;;2;1
005704;OA;ENC;4;63;titkárság;egyszemélyes;FOIL;18;good;1,440065735;;;;2;1
005704;OA;ENC;4;1;akadály;lehetetlen;TARG;19;good;0,81675746;;;;2;1
005704;OA;ENC;4;25;fejfájás;kellemetlen;TARG;20;good;0,876138754;;;;2;1
005704;OA;ENC;4;64;hetilap;közérdekû;FOIL;21;good;1,207255744;;;;2;1
005704;OA;ENC;4;65;novella;tanulságos;TARG;22;good;1,493388601;;;;2;1
005704;OA;ENC;4;83;találmány;forradalmi;TARG;23;good;1,298841559;;;;2;1
005704;OA;ENC;4;104;pszichiáter;hûséges;FOIL;24;no-good;1,384057628;;;;2;1
005704;OA;ENC;4;69;célpont;potenciális;FOIL;25;no-good;1,685393779;;;;2;1
005704;OA;ENC;4;51;levéltár;régészeti;TARG;26;None;;;;none;2;1
005704;OA;ENC;4;87;telefonszám;otthoni;TARG;27;good;0,919884765;;;;2;1
005704;OA;ENC;4;120;áramlat;kulturális;FOIL;28;no-good;1,575636415;;;;2;1
005704;OA;ENC;4;5;áruházlánc;veszteséges;TARG;29;good;1,560282905;;;;2;1
005704;OA;ENC;4;16;tinédzser;kíváncsi;FOIL;30;good;1,12682266;;;;2;1
005704;OA;ENC;4;22;bankrablás;tavalyi;FOIL;31;no-good;1,199863094;;;;2;1
005704;OA;ENC;4;27;gázvezeték;felszíni;TARG;32;no-good;1,734051844;;;;2;1
005704;OA;ENC;4;31;helyezés;végleges;TARG;33;no-good;1,492001508;;;;2;1
005704;OA;ENC;4;55;pályafutás;dicséretes;FOIL;34;good;1,1038109;;;;2;1
005704;OA;ENC;4;56;mikrofon;vezetékes;TARG;35;good;1,60889805;;;;2;1
005704;OA;ENC;4;96;adottság;pozitív;FOIL;36;good;1,125406642;;;;2;1
005704;OA;ENC;4;91;tûzijáték;nagyszabású;TARG;37;good;1,363137705;;;;2;1
005704;OA;ENC;4;26;folyadék;elegendõ;TARG;38;good;0,998517738;;;;2;1
005704;OA;ENC;4;12;rokonság;nagyszámú;FOIL;39;good;1,220048729;;;;2;1
005704;OA;ENC;4;80;népcsoport;kétnyelvû;FOIL;40;good;1,327903349;;;;2;1
005704;OA;ENC;4;63;nagymama;kedvenc;TARG;41;good;1,412358383;;;;2;1
005704;OA;ENC;4;34;korlátozás;lokális;FOIL;42;no-good;1,263662562;;;;2;1
005704;OA;ENC;4;88;útvonal;ajánlatos;FOIL;43;good;1,370086236;;;;2;1
005704;OA;ENC;4;77;szakadék;iszonyatos;TARG;44;good;1,291944034;;;;2;1
005704;OA;ENC;4;8;baktérium;növényi;TARG;45;good;1,674418945;;;;2;1
005704;OA;ENC;4;92;házastárs;eszméletlen;FOIL;46;good;1,68694353;;;;2;1
005704;OA;ENC;4;45;tehetség;példaértékû;FOIL;47;good;0,983910957;;;;2;1
005704;OA;ENC;4;22;egyenruha;rendõri;TARG;48;good;1,110972471;;;;2;1
005704;OA;ENC;4;84;tananyag;iskolai;TARG;49;good;1,116295365;;;;2;1
005704;OA;ENC;4;39;utasítás;elnökségi;FOIL;50;no-good;1,298186266;;;;2;1
005704;OA;ENC;4;112;játszma;belpolitikai;FOIL;51;good;1,543439047;;;;2;1
005704;OA;ENC;4;55;menetrend;szokásos;TARG;52;good;1,508067847;;;;2;1
005704;OA;ENC;4;29;hangszer;autentikus;TARG;53;good;1,077608203;;;;2;1
005704;OA;ENC;4;103;forgatás;életveszélyes;FOIL;54;good;1,589700487;;;;2;1
005704;OA;ENC;4;90;mozdulat;harmonikus;FOIL;55;good;1,22285184;;;;2;1
005704;OA;ENC;4;34;kánikula;tavaszi;TARG;56;good;0,71725557;;;;2;1
005704;OA;ENC;4;13;bölcsõde;kertvárosi;TARG;57;good;1,248680706;;;;2;1
005704;OA;ENC;4;106;munkagép;funkcionális;FOIL;58;good;1,323246322;;;;2;1
005704;OA;ENC;4;124;kertész;szakképzett;FOIL;59;good;1,274247082;;;;2;1
005704;OA;ENC;4;36;kastély;csodálatos;TARG;60;good;0,980872413;;;;2;1
005704;OA;ENC;4;71;vezetõség;tartományi;FOIL;61;no-good;0,96975296;;;;2;1
005704;OA;ENC;4;68;vetélytárs;egyedüli;FOIL;62;no-good;1,757604446;;;;2;1
005704;OA;ENC;4;50;lépcsõház;emeletes;TARG;63;good;1,175405461;;;;2;1
005704;OA;ENC;4;6;kézikönyv;technikai;FOIL;64;good;1,339272541;;;;2;1
005704;OA;ENC;4;19;diktátor;kegyetlen;TARG;65;no-good;1,483931173;;;;2;1
005704;OA;ENC;4;115;villany;infravörös;FOIL;66;good;1,374922404;;;;2;1
005704;OA;ENC;4;76;meglátás;egyoldalú;FOIL;67;good;1,224075965;;;;2;1
005704;OA;ENC;4;28;gorilla;érzékeny;TARG;68;no-good;1,077608203;;;;2;1
005704;OA;ENC;4;11;benzinkút;hajnali;TARG;69;no-good;1,260877178;;;;2;1
005704;OA;ENC;4;58;közvetítés;globális;FOIL;70;no-good;0,994418969;;;;2;1
005704;OA;ENC;4;82;szõnyeg;használati;TARG;71;no-good;0,881639545;;;;2;1
005704;OA;ENC;4;95;végállomás;ideiglenes;TARG;72;good;1,267934873;;;;2;1
005704;OA;ENC;4;122;munkanap;tetszõleges;FOIL;73;good;1,429351835;;;;2;1
005704;OA;ENC;4;23;fürdõszoba;keskeny;FOIL;74;good;1,090416116;;;;2;1
005704;OA;ENC;4;49;legénység;katonai;TARG;75;no-good;1,219506642;;;;2;1
005704;OA;ENC;4;62;mûvészet;vizuális;TARG;76;good;1,637285576;;;;2;1
005704;OA;ENC;4;98;élettárs;passzív;FOIL;77;None;;;;none;2;1
005704;OA;ENC;4;36;berendezés;egyszerû;FOIL;78;good;1,451668493;;;;2;1
005704;OA;ENC;4;94;vacsora;zártkörû;TARG;79;good;0,835575905;;;;2;1
005704;OA;ENC;4;113;védõoltás;hatékony;FOIL;80;good;1,165344366;;;;2;1
005704;OA;ENC;4;92;újságcikk;botrányos;TARG;81;no-good;1,408079852;;;;2;1
005704;OA;ENC;4;52;értesítés;sokszoros;FOIL;82;no-good;1,873758924;;;;2;1
005704;OA;ENC;4;111;hirdetés;releváns;FOIL;83;good;1,836248303;;;;2;1
005704;OA;ENC;4;66;olimpikon;legendás;TARG;84;None;;;;none;2;1
005704;OA;ENC;4;4;hercegnõ;türelmes;FOIL;85;good;0,945918275;;;;2;1
005704;OA;ENC;4;49;havazás;folyamatos;FOIL;86;good;1,185993713;;;;2;1
005704;OA;ENC;4;44;kollégium;fõiskolai;TARG;87;no-good;1,376725314;;;;2;1
005704;OA;ENC;4;10;gombnyomás;fölösleges;FOIL;88;no-good;1,25773227;;;;2;1
005704;OA;ENC;4;72;asszisztens;tárgyalási;FOIL;89;no-good;1,891580279;;;;2;1
005704;OA;ENC;4;78;szélvihar;hirtelen;TARG;90;good;1,002536578;;;;2;1
005704;OA;ENC;4;97;világítás;hangulatos;TARG;91;good;0,975922728;;;;2;1
005704;OA;ENC;4;50;leépítés;túlzott;FOIL;92;no-good;1,237630297;;;;2;1
005704;OA;ENC;4;61;üzemanyag;mesterséges;FOIL;93;no-good;1,309245384;;;;2;1
005704;OA;ENC;4;85;tanfolyam;gyakorlati;TARG;94;good;1,2385882;;;;2;1
005704;OA;ENC;4;83;gyûjtemény;sokszínû;FOIL;95;good;1,762644945;;;;2;1
005704;OA;ENC;4;119;felajánlás;tömeges;FOIL;96;no-good;1,546706492;;;;2;1
005704;OA;ENC;4;24;fejedelem;történelmi;TARG;97;good;1,176086567;;;;2;1
005704;OA;ENC;4;85;bûntett;embertelen;FOIL;98;good;1,152407696;;;;2;1
005704;OA;ENC;4;38;kerékpár;elektromos;TARG;99;good;1,153771464;;;;2;1
005704;OA;ENC;4;109;mozzanat;színészi;FOIL;100;no-good;1,4118051;;;;2;1
005704;OA;REC_GYAK;4;6;nézõtér;arányos;FOIL;1;old;1,56327853;1;2,825304259;0;2;1
005704;OA;REC_GYAK;4;2;csokoládé;szokványos;CLOSE;2;new;1,896419868;3;3,746639252;1;2;1
005704;OA;REC_GYAK;4;4;taktika;hátrányos;FOIL;3;new;1,903917016;3;2,897978327;1;2;1
005704;OA;REC_GYAK;4;1;színésznõ;tevékeny;TARG;4;None;;1;2,695976433;none;2;1
005704;OA;REC_GYAK;4;3;sivatag;délelõtti;DISTANT;5;None;;3;2,026103175;none;2;1
005704;OA;REC_GYAK;4;5;hadmûvelet;rivális;FOIL;6;None;;3;1,65092419;none;2;1
005704;OA;REC;4;29;hangszer;autentikus;TARG;1;None;;1;1,667663239;none;2;1
005704;OA;REC;4;14;csecsemõ;normális;CLOSE;2;None;;3;2,389109635;none;2;1
005704;OA;REC;4;57;monitor;kijelzõs;TARG;3;old;1,555044916;1;2,320507589;1;2;1
005704;OA;REC;4;89;törmelék;baleseti;DISTANT;4;old;1,804796421;2;1,910994304;0;2;1
005704;OA;REC;4;9;barátnõ;tehetõs;CLOSE;5;new;1,959687201;3;1,148900775;1;2;1
005704;OA;REC;4;41;operatõr;hivatásos;FOIL;6;new;1,88146818;3;1,319936268;1;2;1
005704;OA;REC;4;62;mûvészet;vizuális;TARG;7;old;1,595567334;3;0,939765612;1;2;1
005704;OA;REC;4;118;kiképzés;lélektani;FOIL;8;old;1,113204261;3;1,638235704;0;2;1
005704;OA;REC;4;33;iránytû;hasznos;TARG;9;old;1,745495678;3;1,160249751;1;2;1
005704;OA;REC;4;11;benzinkút;délutáni;CLOSE;10;new;1,905393369;2;3,28092317;1;2;1
005704;OA;REC;4;48;költészet;mágikus;TARG;11;new;1,415393505;3;3,405960957;0;2;1
005704;OA;REC;4;23;étterem;divatos;CLOSE;12;new;2,005354617;3;1,581958576;1;2;1
005704;OA;REC;4;27;gázvezeték;felszíni;TARG;13;old;1,380312475;3;1,621524024;1;2;1
005704;OA;REC;4;40;kesztyû;férfias;TARG;14;old;1,968462901;2;0,640020265;1;2;1
005704;OA;REC;4;6;ásványvíz;színvonalas;CLOSE;15;new;1,898299286;3;4,189719894;1;2;1
005704;OA;REC;4;61;mûemlék;természeti;TARG;16;old;2,080074493;3;1,652929878;1;2;1
005704;OA;REC;4;58;mutatvány;szánalmas;TARG;17;old;1,125562768;3;0,612827942;1;2;1
005704;OA;REC;4;17;csomagolás;stílusos;CLOSE;18;old;1,433979006;3;0,536023072;0;2;1
005704;OA;REC;4;98;zarándok;határozatlan;DISTANT;19;new;2,379892304;3;1,833001696;1;2;1
005704;OA;REC;4;37;korszak;bizonytalan;FOIL;20;old;1,150937563;3;0,796016055;0;2;1
005704;OA;REC;4;94;vacsora;szociális;DISTANT;21;old;1,498482594;3;0,745389002;0;2;1
005704;OA;REC;4;70;kritika;érthetetlen;FOIL;22;old;1,154661568;3;1,489536462;0;2;1
005704;OA;REC;4;24;fejedelem;ezeréves;CLOSE;23;old;1,266204427;3;1,44878141;0;2;1
005704;OA;REC;4;16;csillagász;szemfüles;CLOSE;24;old;2,08974154;3;0,764890731;0;2;1
005704;OA;REC;4;82;szõnyeg;halvány;DISTANT;25;old;0,743679705;2;0,485824898;0;2;1
005704;OA;REC;4;13;bölcsõde;kicsiny;CLOSE;26;old;1,604337125;3;0,866261154;0;2;1
005704;OA;REC;4;70;pénztárca;ismeretlen;TARG;27;old;0,869567165;3;0,802231852;1;2;1
005704;OA;REC;4;42;kirándulás;hétvégi;TARG;28;old;1,08460805;3;0,859423964;1;2;1
005704;OA;REC;4;88;tévémûsor;versenyképes;DISTANT;29;old;1,456784568;3;0,644628775;0;2;1
005704;OA;REC;4;82;értékrend;szubjektív;FOIL;30;old;1,281945452;3;0,65704513;0;2;1
005704;OA;REC;4;93;testrész;elõnytelen;FOIL;31;new;2,20785941;1;1,14700394;1;2;1
005704;OA;REC;4;78;szélvihar;középfokú;DISTANT;32;old;1,570033303;3;1,131224972;0;2;1
005704;OA;REC;4;30;háziorvos;körzeti;TARG;33;old;1,18494033;3;0,454600984;1;2;1
005704;OA;REC;4;49;legénység;katonai;TARG;34;old;1,650375884;3;0,849830003;1;2;1
005704;OA;REC;4;19;diktátor;szörnyû;CLOSE;35;old;1,258708211;3;0,515244657;0;2;1
005704;OA;REC;4;38;kerékpár;elektromos;TARG;36;old;1,137471247;3;0,564005043;1;2;1
005704;OA;REC;4;74;repülõjegy;érvényes;TARG;37;old;0,999576408;3;0,662279387;1;2;1
005704;OA;REC;4;93;útlezárás;taktikai;DISTANT;38;None;;2;2,364784801;none;2;1
005704;OA;REC;4;50;lépcsõház;emeletes;TARG;39;old;1,182638874;3;0,618016481;1;2;1
005704;OA;REC;4;35;kapitány;rutinos;TARG;40;old;1,075948355;3;0,639434016;1;2;1
005704;OA;REC;4;15;csengõhang;változatos;CLOSE;41;new;1,722348941;3;0,575300216;1;2;1
005704;OA;REC;4;86;választék;tetszetõs;FOIL;42;new;1,92328159;3;0,754132046;1;2;1
005704;OA;REC;4;64;napsütés;felhõtlen;TARG;43;old;1,466422381;3;0,641180945;1;2;1
005704;OA;REC;4;86;távirat;sürgõsségi;DISTANT;44;None;;2;2,287251863;none;2;1
005704;OA;REC;4;14;focista;rugalmas;FOIL;45;new;1,513000116;3;1,48887526;1;2;1
005704;OA;REC;4;5;áruházlánc;kockázatos;CLOSE;46;old;1,928843027;2;1,633074223;0;2;1
005704;OA;REC;4;67;oroszlán;nyugodt;TARG;47;old;0,831632018;3;0,685154303;1;2;1
005704;OA;REC;4;73;rémálom;szomorú;TARG;48;new;1,921013723;3;0,980194728;0;2;1
005704;OA;REC;4;87;alkatrész;mágneses;FOIL;49;new;1,490574294;3;1,363359454;1;2;1
005704;OA;REC;4;97;pontszám;egyenlõ;FOIL;50;new;1,058211284;3;0,452623909;1;2;1
005704;OA;REC;4;32;horgász;balatoni;TARG;51;new;1,463712572;3;0,663920263;0;2;1
005704;OA;REC;4;45;kolostor;hajdani;TARG;52;old;0,914046532;3;0,97752224;1;2;1
005704;OA;REC;4;81;színdarab;illegális;DISTANT;53;new;1,782365934;3;1,899549537;1;2;1
005704;OA;REC;4;39;készpénz;csekély;TARG;54;old;1,420650777;2;1,330368395;1;2;1
005704;OA;REC;4;77;szakadék;közterületi;DISTANT;55;old;1,666403969;3;0,551680436;0;2;1
005704;OA;REC;4;96;ventilátor;mûszaki;DISTANT;56;new;3,647477604;2;2,150366865;1;2;1
005704;OA;REC;4;105;szörnyeteg;képzeletbeli;FOIL;57;new;1,543739169;3;0,785603212;1;2;1
005704;OA;REC;4;92;újságcikk;mezõgazdasági;DISTANT;58;old;1,660132502;3;0,771667585;0;2;1
005704;OA;REC;4;47;koponya;parányi;TARG;59;old;1,175313091;3;1,114967674;1;2;1
005704;OA;REC;4;87;telefonszám;doktori;DISTANT;60;new;1,589364599;3;0,617485591;1;2;1
005704;OA;REC;4;44;veszekedés;hétköznapi;FOIL;61;old;1,975144898;2;0,502298968;0;2;1
005704;OA;REC;4;56;észrevétel;lényegtelen;FOIL;62;new;1,604178511;3;1,19486427;1;2;1
005704;OA;REC;4;36;kastély;csodálatos;TARG;63;old;1,131711387;3;0,509688507;1;2;1
005704;OA;REC;4;46;kommentár;terjedelmes;TARG;64;old;1,533871211;3;0,649108839;1;2;1
005704;OA;REC;4;9;bábszínház;virtuális;FOIL;65;new;1,609995596;3;1,261973169;1;2;1
005704;OA;REC;4;3;fõhadnagy;kíméletlen;FOIL;66;new;1,339499265;3;0,604071835;1;2;1
005704;OA;REC;4;43;kolbász;tonnányi;TARG;67;old;1,444510032;3;0,604078366;1;2;1
005704;OA;REC;4;76;szabadidõ;akadémiai;DISTANT;68;new;3,422907137;3;1,15383802;1;2;1
005704;OA;REC;4;34;kánikula;tavaszi;TARG;69;old;1,220102844;3;0,711692578;1;2;1
005704;OA;REC;4;65;novella;tanulságos;TARG;70;old;1,155297267;3;0,719003121;1;2;1
005704;OA;REC;4;67;védekezés;célszerû;FOIL;71;old;1,123425524;3;0,519973838;0;2;1
005704;OA;REC;4;85;tanfolyam;gitáros;DISTANT;72;new;1,255661581;3;0,672878524;1;2;1
005704;OA;REC;4;55;menetrend;szokásos;TARG;73;old;1,152036664;3;0,595458481;1;2;1
005704;OA;REC;4;10;barlang;rejtélyes;CLOSE;74;old;1,073464338;3;0,404561112;0;2;1
005704;OA;REC;4;37;képregény;izgalmas;TARG;75;old;1,369501853;3;0,454823354;1;2;1
005704;OA;REC;4;25;fejfájás;borzalmas;CLOSE;76;new;2,686828146;3;1,064648518;1;2;1
005704;OA;REC;4;60;mûanyag;felesleges;TARG;77;old;1,57458863;3;0,828972593;1;2;1
005704;OA;REC;4;56;mikrofon;vezetékes;TARG;78;old;1,376390359;3;0,552747814;1;2;1
005704;OA;REC;4;57;hadjárat;szerencsétlen;FOIL;79;new;1,741289923;3;0,791718242;1;2;1
005704;OA;REC;4;63;nagymama;kedvenc;TARG;80;old;1,211158889;3;1,157358003;1;2;1
005704;OA;REC;4;51;levéltár;régészeti;TARG;81;old;0,803807728;3;1,020266807;1;2;1
005704;OA;REC;4;91;tûzijáték;opcionális;DISTANT;82;new;1,515702771;3;1,555847004;1;2;1
005704;OA;REC;4;21;díszterem;tekintélyes;CLOSE;83;new;1,969401833;3;0,604200903;1;2;1
005704;OA;REC;4;95;végállomás;mozgalmas;DISTANT;84;new;1,688784694;3;0,417309934;1;2;1
005704;OA;REC;4;53;matrica;fizetõs;TARG;85;old;1,136333582;3;0,554705917;1;2;1
005704;OA;REC;4;90;tudomány;belföldi;DISTANT;86;new;1,356565805;3;0,646916236;1;2;1
005704;OA;REC;4;5;díszvendég;nagyvonalú;FOIL;87;new;1,622653915;3;0,677820434;1;2;1
005704;OA;REC;4;69;ösztöndíj;tanulmányi;TARG;88;None;;3;2,608112756;none;2;1
005704;OA;REC;4;18;diáklány;védtelen;CLOSE;89;new;2,15341816;2;1,343010852;1;2;1
005704;OA;REC;4;80;szerszám;klinikai;DISTANT;90;old;1,959348203;2;1,506764414;0;2;1
005704;OA;REC;4;1;akadály;reménytelen;CLOSE;91;new;2,364839228;3;2,253082707;1;2;1
005704;OA;REC;4;26;folyadék;elegendõ;TARG;92;old;1,266343136;3;0,744818303;1;2;1
005704;OA;REC;4;41;királynõ;szépséges;TARG;93;old;2,220807898;3;0,661632802;1;2;1
005704;OA;REC;4;11;laktanya;községi;FOIL;94;None;;3;1,175914891;none;2;1
005704;OA;REC;4;8;baktérium;létfontosságú;CLOSE;95;new;1,67819271;3;0,948318631;1;2;1
005704;OA;REC;4;71;pisztoly;törvénytelen;TARG;96;new;1,341797611;3;0,726497159;0;2;1
005704;OA;REC;4;75;sütemény;születésnapi;TARG;97;old;1,173416567;2;1,180779671;1;2;1
005704;OA;REC;4;22;egyenruha;szolgálati;CLOSE;98;new;1,448122074;3;0,550692054;1;2;1
005704;OA;REC;4;52;magazin;tudományos;TARG;99;old;1,427988689;3;0,616042516;1;2;1
005704;OA;REC;4;84;tananyag;határidõs;DISTANT;100;old;1,290589907;1;0,947088285;0;2;1
005704;OA;REC;4;59;mûalkotás;korabeli;TARG;101;old;1,184298099;3;1,5936677;1;2;1
005704;OA;REC;4;40;engedmény;felelõtlen;FOIL;102;new;1,440939666;3;0,566889949;1;2;1
005704;OA;REC;4;79;szemüveg;védelmi;DISTANT;103;new;1,286252284;3;0,919795817;1;2;1
005704;OA;REC;4;17;borvidék;csapadékos;FOIL;104;new;1,578541847;3;0,788699292;1;2;1
005704;OA;REC;4;73;felsorolás;tartalmi;FOIL;105;new;1,194911232;3;1,021101551;1;2;1
005704;OA;REC;4;12;boríték;hiányos;CLOSE;106;new;0,963516948;2;0,478789285;1;2;1
005704;OA;REC;4;4;állatkert;különleges;CLOSE;107;new;1,700220131;3;0,509022951;1;2;1
005704;OA;REC;4;66;olimpikon;legendás;TARG;108;None;;2;0,641491642;none;2;1
005704;OA;REC;4;44;kollégium;fõiskolai;TARG;109;old;1,36756241;3;0,432654114;1;2;1
005704;OA;REC;4;121;családfõ;becsületes;FOIL;110;old;2,57310699;1;1,533876187;0;2;1
005704;OA;REC;4;100;zöldség;távolabbi;DISTANT;111;None;;3;0,574944734;none;2;1
005704;OA;REC;4;31;helyezés;végleges;TARG;112;new;1,795316599;3;1,564964502;0;2;1
005704;OA;REC;4;99;zeneszerzõ;vállalkozási;DISTANT;113;new;1,086633642;3;0,590365732;1;2;1
005704;OA;REC;4;3;alkohol;jogszerû;CLOSE;114;old;1,780230556;3;0,658395213;0;2;1
005704;OA;REC;4;1;merénylõ;erõszakos;FOIL;115;new;2,072859428;3;0,708599297;1;2;1
005704;OA;REC;4;20;díszlet;alkalmi;CLOSE;116;old;1,196630482;2;0,71781445;0;2;1
005704;OA;REC;4;28;gorilla;érzékeny;TARG;117;old;1,477677122;3;0,949156796;1;2;1
005704;OA;REC;4;7;aszfalt;egyenletes;CLOSE;118;new;2,147790478;3;0,591594834;1;2;1
005704;OA;REC;4;66;csarnok;ünnepélyes;FOIL;119;old;1,53522005;1;0,990420967;0;2;1
005704;OA;REC;4;83;találmány;elektronikus;DISTANT;120;new;1,825380456;3;0,920085987;1;2;1
005704;OA;REC;4;54;mellény;sportos;TARG;121;old;2,106871214;2;1,276366598;1;2;1
005704;OA;REC;4;2;albérlet;elmaradott;CLOSE;122;new;1,869675084;3;0,768663563;1;2;1
005704;OA;REC;4;68;osztályzat;közepes;TARG;123;new;1,350314553;3;1,217687559;0;2;1
005704;OA;REC;4;97;világítás;azonnali;DISTANT;124;new;1,593129968;3;0,974572334;1;2;1
005704;OA;REC;4;72;professzor;közgazdasági;TARG;125;old;1,482157808;3;0,857062795;1;2;1
006150;OA;ENC_GYAK;9;6;karrier;termékeny;FOIL;1;None;;;;none;2;1
006150;OA;ENC_GYAK;9;2;csokoládé;közönséges;TARG;2;None;;;;none;2;1
006150;OA;ENC_GYAK;9;4;retorika;ésszerû;FOIL;3;good;1,843048173;;;;2;1
006150;OA;ENC_GYAK;9;3;sivatag;végtelen;TARG;4;no-good;1,433309407;;;;2;1
006150;OA;ENC_GYAK;9;5;hulladék;darabos;FOIL;5;good;1,440480619;;;;2;1
006150;OA;ENC_GYAK;9;1;színésznõ;tevékeny;TARG;6;good;1,57754569;;;;2;1
006150;OA;ENC_GYAK;9;5;hulladék;darabos;FOIL;1;good;0,960287135;;;;2;1
006150;OA;ENC_GYAK;9;6;karrier;termékeny;FOIL;2;good;1,528278673;;;;2;1
006150;OA;ENC_GYAK;9;2;csokoládé;közönséges;TARG;3;good;1,441699457;;;;2;1
006150;OA;ENC_GYAK;9;4;retorika;ésszerû;FOIL;4;good;1,519468762;;;;2;1
006150;OA;ENC_GYAK;9;1;színésznõ;tevékeny;TARG;5;no-good;1,164510244;;;;2;1
006150;OA;ENC_GYAK;9;3;sivatag;végtelen;TARG;6;good;1,154353359;;;;2;1
006150;OA;ENC;9;68;vetélytárs;egyedüli;FOIL;1;good;1,361299029;;;;2;1
006150;OA;ENC;9;107;üdvözlet;kölcsönös;FOIL;2;None;;;;none;2;1
006150;OA;ENC;9;47;koponya;parányi;TARG;3;good;1,144608249;;;;2;1
006150;OA;ENC;9;9;bábszínház;virtuális;FOIL;4;good;1,095885183;;;;2;1
006150;OA;ENC;9;20;díszlet;színpadi;TARG;5;good;1,02414165;;;;2;1
006150;OA;ENC;9;5;áruházlánc;veszteséges;TARG;6;None;;;;none;2;1
006150;OA;ENC;9;81;mellékhatás;közvetett;FOIL;7;good;1,246004175;;;;2;1
006150;OA;ENC;9;8;baktérium;növényi;TARG;8;good;1,058573918;;;;2;1
006150;OA;ENC;9;19;diktátor;kegyetlen;TARG;9;good;1,090292646;;;;2;1
006150;OA;ENC;9;58;közvetítés;globális;FOIL;10;good;1,247194712;;;;2;1
006150;OA;ENC;9;44;veszekedés;hétköznapi;FOIL;11;good;1,249241763;;;;2;1
006150;OA;ENC;9;79;szemüveg;kényelmes;TARG;12;good;1,698636792;;;;2;1
006150;OA;ENC;9;17;csomagolás;ízléses;TARG;13;good;1,034656194;;;;2;1
006150;OA;ENC;9;117;megjegyzés;rosszindulatú;FOIL;14;good;1,14713052;;;;2;1
006150;OA;ENC;9;80;népcsoport;kétnyelvû;FOIL;15;good;1,529238131;;;;2;1
006150;OA;ENC;9;14;csecsemõ;egészséges;TARG;16;good;1,178717069;;;;2;1
006150;OA;ENC;9;13;bölcsõde;kertvárosi;TARG;17;good;1,200388075;;;;2;1
006150;OA;ENC;9;95;gyûlölet;mélységes;FOIL;18;good;1,215192346;;;;2;1
006150;OA;ENC;9;62;gyulladás;fájdalmas;FOIL;19;good;1,112815502;;;;2;1
006150;OA;ENC;9;3;alkohol;legális;TARG;20;good;1,508687685;;;;2;1
006150;OA;ENC;9;98;zarándok;keresztény;TARG;21;no-good;1,671488942;;;;2;1
006150;OA;ENC;9;89;ellenõr;közömbös;FOIL;22;good;1,070345554;;;;2;1
006150;OA;ENC;9;37;korszak;bizonytalan;FOIL;23;good;0,969056926;;;;2;1
006150;OA;ENC;9;66;olimpikon;legendás;TARG;24;good;1,217240642;;;;2;1
006150;OA;ENC;9;54;tartozás;nagymértékû;FOIL;25;good;1,118597754;;;;2;1
006150;OA;ENC;9;24;fejedelem;történelmi;TARG;26;no-good;1,74468457;;;;2;1
006150;OA;ENC;9;21;díszterem;patinás;TARG;27;good;0,963302975;;;;2;1
006150;OA;ENC;9;15;küldemény;dobozos;FOIL;28;good;0,938620483;;;;2;1
006150;OA;ENC;9;38;kerékpár;elektromos;TARG;29;good;1,27977493;;;;2;1
006150;OA;ENC;9;40;kesztyû;férfias;TARG;30;good;0,829023287;;;;2;1
006150;OA;ENC;9;4;hercegnõ;türelmes;FOIL;31;good;1,663645021;;;;2;1
006150;OA;ENC;9;14;focista;rugalmas;FOIL;32;no-good;1,706863563;;;;2;1
006150;OA;ENC;9;34;kánikula;tavaszi;TARG;33;no-good;1,675096008;;;;2;1
006150;OA;ENC;9;28;gorilla;érzékeny;TARG;34;no-good;1,427077437;;;;2;1
006150;OA;ENC;9;91;fertõzés;hosszútávú;FOIL;35;good;1,180110383;;;;2;1
006150;OA;ENC;9;57;hadjárat;szerencsétlen;FOIL;36;no-good;1,590749205;;;;2;1
006150;OA;ENC;9;84;tananyag;iskolai;TARG;37;good;1,181891212;;;;2;1
006150;OA;ENC;9;35;fenyegetés;írásbeli;FOIL;38;good;1,084075916;;;;2;1
006150;OA;ENC;9;77;õrmester;méltatlan;FOIL;39;no-good;1,227088696;;;;2;1
006150;OA;ENC;9;49;legénység;katonai;TARG;40;good;1,729921974;;;;2;1
006150;OA;ENC;9;72;professzor;közgazdasági;TARG;41;good;1,670662284;;;;2;1
006150;OA;ENC;9;118;kiképzés;lélektani;FOIL;42;good;1,212056146;;;;2;1
006150;OA;ENC;9;70;pénztárca;ismeretlen;TARG;43;no-good;1,191568523;;;;2;1
006150;OA;ENC;9;106;munkagép;funkcionális;FOIL;44;good;1,299044336;;;;2;1
006150;OA;ENC;9;57;monitor;kijelzõs;TARG;45;good;1,140655654;;;;2;1
006150;OA;ENC;9;124;kertész;szakképzett;FOIL;46;good;1,437149728;;;;2;1
006150;OA;ENC;9;34;korlátozás;lokális;FOIL;47;good;1,507533536;;;;2;1
006150;OA;ENC;9;97;világítás;hangulatos;TARG;48;good;1,37771463;;;;2;1
006150;OA;ENC;9;43;kitüntetés;jelképes;FOIL;49;good;1,900287247;;;;2;1
006150;OA;ENC;9;120;áramlat;kulturális;FOIL;50;no-good;1,619319292;;;;2;1
006150;OA;ENC;9;95;végállomás;ideiglenes;TARG;51;no-good;1,80204898;;;;2;1
006150;OA;ENC;9;104;pszichiáter;hûséges;FOIL;52;no-good;1,535117729;;;;2;1
006150;OA;ENC;9;7;aszfalt;hibátlan;TARG;53;good;1,557693456;;;;2;1
006150;OA;ENC;9;56;mikrofon;vezetékes;TARG;54;good;1,301727398;;;;2;1
006150;OA;ENC;9;102;vetítés;farsangi;FOIL;55;no-good;1,214896889;;;;2;1
006150;OA;ENC;9;4;állatkert;egzotikus;TARG;56;good;1,686654915;;;;2;1
006150;OA;ENC;9;88;tévémûsor;közéleti;TARG;57;no-good;1,407385683;;;;2;1
006150;OA;ENC;9;29;nyereség;pillanatnyi;FOIL;58;good;1,211463365;;;;2;1
006150;OA;ENC;9;67;védekezés;célszerû;FOIL;59;good;1,412627404;;;;2;1
006150;OA;ENC;9;32;horgász;balatoni;TARG;60;good;1,080052722;;;;2;1
006150;OA;ENC;9;12;rokonság;nagyszámú;FOIL;61;good;1,45047298;;;;2;1
006150;OA;ENC;9;83;találmány;forradalmi;TARG;62;good;1,675829675;;;;2;1
006150;OA;ENC;9;27;gázvezeték;felszíni;TARG;63;None;;;;none;2;1
006150;OA;ENC;9;51;sorrend;szabályos;FOIL;64;good;1,447359484;;;;2;1
006150;OA;ENC;9;20;földrengés;sorozatos;FOIL;65;good;1,200584321;;;;2;1
006150;OA;ENC;9;78;szélvihar;hirtelen;TARG;66;good;1,431587047;;;;2;1
006150;OA;ENC;9;40;engedmény;felelõtlen;FOIL;67;no-good;1,763518565;;;;2;1
006150;OA;ENC;9;119;felajánlás;tömeges;FOIL;68;good;1,581811781;;;;2;1
006150;OA;ENC;9;99;zeneszerzõ;nagyszerû;TARG;69;good;1,117904207;;;;2;1
006150;OA;ENC;9;52;magazin;tudományos;TARG;70;good;0,924540238;;;;2;1
006150;OA;ENC;9;24;irodaház;szemközti;FOIL;71;good;1,419338014;;;;2;1
006150;OA;ENC;9;92;újságcikk;botrányos;TARG;72;good;1,27869138;;;;2;1
006150;OA;ENC;9;96;ventilátor;masszív;TARG;73;no-good;1,636086953;;;;2;1
006150;OA;ENC;9;59;sorsolás;helytelen;FOIL;74;None;;;;none;2;1
006150;OA;ENC;9;26;folyadék;elegendõ;TARG;75;good;1,377632212;;;;2;1
006150;OA;ENC;9;94;vacsora;zártkörû;TARG;76;good;1,009159172;;;;2;1
006150;OA;ENC;9;61;üzemanyag;mesterséges;FOIL;77;good;1,797516978;;;;2;1
006150;OA;ENC;9;27;párbeszéd;kötetlen;FOIL;78;good;1,182404063;;;;2;1
006150;OA;ENC;9;62;mûvészet;vizuális;TARG;79;no-good;1,915188551;;;;2;1
006150;OA;ENC;9;71;vezetõség;tartományi;FOIL;80;no-good;1,89949511;;;;2;1
006150;OA;ENC;9;17;borvidék;csapadékos;FOIL;81;no-good;1,873476218;;;;2;1
006150;OA;ENC;9;48;költészet;mágikus;TARG;82;no-good;1,296379001;;;;2;1
006150;OA;ENC;9;103;forgatás;életveszélyes;FOIL;83;good;1,145480625;;;;2;1
006150;OA;ENC;9;80;szerszám;trükkös;TARG;84;good;1,588586769;;;;2;1
006150;OA;ENC;9;46;ügyintézés;zökkenõmentes;FOIL;85;good;1,823339624;;;;2;1
006150;OA;ENC;9;110;hátrány;mentális;FOIL;86;good;1,472100446;;;;2;1
006150;OA;ENC;9;68;osztályzat;közepes;TARG;87;good;1,102402969;;;;2;1
006150;OA;ENC;9;48;nézõpont;kézenfekvõ;FOIL;88;good;1,191917785;;;;2;1
006150;OA;ENC;9;23;étterem;elegáns;TARG;89;good;0,859530329;;;;2;1
006150;OA;ENC;9;69;célpont;potenciális;FOIL;90;good;1,208884179;;;;2;1
006150;OA;ENC;9;31;helyezés;végleges;TARG;91;good;1,480729972;;;;2;1
006150;OA;ENC;9;33;iránytû;hasznos;TARG;92;no-good;1,512207979;;;;2;1
006150;OA;ENC;9;75;jutalom;kívánatos;FOIL;93;good;1,043489741;;;;2;1
006150;OA;ENC;9;6;ásványvíz;minõségi;TARG;94;good;1,766665029;;;;2;1
006150;OA;ENC;9;83;gyûjtemény;sokszínû;FOIL;95;good;1,421791553;;;;2;1
006150;OA;ENC;9;28;követelés;eredményes;FOIL;96;no-good;1,3859131;;;;2;1
006150;OA;ENC;9;89;törmelék;építkezési;TARG;97;good;1,362380402;;;;2;1
006150;OA;ENC;9;22;egyenruha;rendõri;TARG;98;good;0,947097926;;;;2;1
006150;OA;ENC;9;125;csemege;temérdek;FOIL;99;no-good;1,219015562;;;;2;1
006150;OA;ENC;9;66;csarnok;ünnepélyes;FOIL;100;no-good;1,397719879;;;;2;1
006150;OA;ENC;9;64;napsütés;felhõtlen;TARG;1;None;;;;none;2;1
006150;OA;ENC;9;87;alkatrész;mágneses;FOIL;2;good;1,264548622;;;;2;1
006150;OA;ENC;9;101;diskurzus;társadalmi;FOIL;3;no-good;1,847465413;;;;2;1
006150;OA;ENC;9;73;rémálom;szomorú;TARG;4;no-good;1,335624422;;;;2;1
006150;OA;ENC;9;116;hazugság;kisebbik;FOIL;5;good;0,995559434;;;;2;1
006150;OA;ENC;9;74;zûrzavar;érzelmi;FOIL;6;good;1,277924124;;;;2;1
006150;OA;ENC;9;58;mutatvány;szánalmas;TARG;7;good;1,244839141;;;;2;1
006150;OA;ENC;9;18;diáklány;ártatlan;TARG;8;good;1,201772059;;;;2;1
006150;OA;ENC;9;109;mozzanat;színészi;FOIL;9;no-good;1,787903112;;;;2;1
006150;OA;ENC;9;10;barlang;lakatlan;TARG;10;good;1,549234051;;;;2;1
006150;OA;ENC;9;79;szivárgás;fokozatos;FOIL;11;good;1,523508439;;;;2;1
006150;OA;ENC;9;30;háziorvos;körzeti;TARG;12;good;1,168965116;;;;2;1
006150;OA;ENC;9;85;bûntett;embertelen;FOIL;13;no-good;1,345619272;;;;2;1
006150;OA;ENC;9;77;szakadék;iszonyatos;TARG;14;no-good;1,486716557;;;;2;1
006150;OA;ENC;9;92;házastárs;eszméletlen;FOIL;15;no-good;1,759443433;;;;2;1
006150;OA;ENC;9;39;utasítás;elnökségi;FOIL;16;good;1,147221334;;;;2;1
006150;OA;ENC;9;44;kollégium;fõiskolai;TARG;17;good;1,242366009;;;;2;1
006150;OA;ENC;9;15;csengõhang;többféle;TARG;18;good;1,385828506;;;;2;1
006150;OA;ENC;9;78;dulakodás;szándékos;FOIL;19;good;1,201548755;;;;2;1
006150;OA;ENC;9;46;kommentár;terjedelmes;TARG;20;good;1,341682227;;;;2;1
006150;OA;ENC;9;90;mozdulat;harmonikus;FOIL;21;no-good;1,258680532;;;;2;1
006150;OA;ENC;9;82;szõnyeg;használati;TARG;22;no-good;1,708796164;;;;2;1
006150;OA;ENC;9;42;kirándulás;hétvégi;TARG;23;good;0,831473404;;;;2;1
006150;OA;ENC;9;31;nagykövet;befolyásos;FOIL;24;good;1,772540583;;;;2;1
006150;OA;ENC;9;81;színdarab;humoros;TARG;25;good;1,111378647;;;;2;1
006150;OA;ENC;9;76;meglátás;egyoldalú;FOIL;26;good;1,115819524;;;;2;1
006150;OA;ENC;9;93;testrész;elõnytelen;FOIL;27;good;1,250684528;;;;2;1
006150;OA;ENC;9;37;képregény;izgalmas;TARG;28;good;1,016898595;;;;2;1
006150;OA;ENC;9;50;lépcsõház;emeletes;TARG;29;None;;;;none;2;1
006150;OA;ENC;9;72;asszisztens;tárgyalási;FOIL;30;no-good;1,887331605;;;;2;1
006150;OA;ENC;9;1;merénylõ;erõszakos;FOIL;31;no-good;1,929569852;;;;2;1
006150;OA;ENC;9;71;pisztoly;törvénytelen;TARG;32;no-good;1,298134017;;;;2;1
006150;OA;ENC;9;43;kolbász;tonnányi;TARG;33;no-good;1,708583124;;;;2;1
006150;OA;ENC;9;5;díszvendég;nagyvonalú;FOIL;34;no-good;1,893470583;;;;2;1
006150;OA;ENC;9;99;államférfi;diszkrét;FOIL;35;good;0,736855577;;;;2;1
006150;OA;ENC;9;93;útlezárás;helyszíni;TARG;36;good;1,207038972;;;;2;1
006150;OA;ENC;9;21;frontember;lendületes;FOIL;37;good;1,792732438;;;;2;1
006150;OA;ENC;9;90;tudomány;mérnöki;TARG;38;good;0,958459654;;;;2;1
006150;OA;ENC;9;54;mellény;sportos;TARG;39;good;1,230354897;;;;2;1
006150;OA;ENC;9;86;választék;tetszetõs;FOIL;40;good;1,407059125;;;;2;1
006150;OA;ENC;9;23;fürdõszoba;keskeny;FOIL;41;good;1,381683708;;;;2;1
006150;OA;ENC;9;60;mûanyag;felesleges;TARG;42;good;1,765792652;;;;2;1
006150;OA;ENC;9;9;barátnõ;középkorú;TARG;43;good;1,135446588;;;;2;1
006150;OA;ENC;9;50;leépítés;túlzott;FOIL;44;good;1,190672199;;;;2;1
006150;OA;ENC;9;70;kritika;érthetetlen;FOIL;45;good;1,461898776;;;;2;1
006150;OA;ENC;9;67;oroszlán;nyugodt;TARG;46;no-good;1,17808448;;;;2;1
006150;OA;ENC;9;11;benzinkút;hajnali;TARG;47;no-good;1,351169202;;;;2;1
006150;OA;ENC;9;84;útmutatás;szakszerû;FOIL;48;good;1,362488322;;;;2;1
006150;OA;ENC;9;75;sütemény;születésnapi;TARG;49;good;1,245658024;;;;2;1
006150;OA;ENC;9;2;albérlet;szegényes;TARG;50;good;1,237534195;;;;2;1
006150;OA;ENC;9;36;berendezés;egyszerû;FOIL;51;good;1,113983957;;;;2;1
006150;OA;ENC;9;39;készpénz;csekély;TARG;52;good;1,542046977;;;;2;1
006150;OA;ENC;9;63;nagymama;kedvenc;TARG;53;good;1,179701408;;;;2;1
006150;OA;ENC;9;19;mellékutca;rendezetlen;FOIL;54;no-good;1,424088344;;;;2;1
006150;OA;ENC;9;123;lázadás;széleskörû;FOIL;55;no-good;1,242007106;;;;2;1
006150;OA;ENC;9;86;távirat;udvarias;TARG;56;no-good;1,216088981;;;;2;1
006150;OA;ENC;9;82;értékrend;szubjektív;FOIL;57;good;1,329119077;;;;2;1
006150;OA;ENC;9;85;tanfolyam;gyakorlati;TARG;58;good;1,803190689;;;;2;1
006150;OA;ENC;9;33;parancs;vitathatatlan;FOIL;59;good;1,373094612;;;;2;1
006150;OA;ENC;9;25;fejfájás;kellemetlen;TARG;60;good;1,049223476;;;;2;1
006150;OA;ENC;9;61;mûemlék;természeti;TARG;61;None;;;;none;2;1
006150;OA;ENC;9;18;olvasmány;gyermekkori;FOIL;62;good;0,963398143;;;;2;1
006150;OA;ENC;9;1;akadály;lehetetlen;TARG;63;no-good;1,424483634;;;;2;1
006150;OA;ENC;9;36;kastély;csodálatos;TARG;64;good;0,867714804;;;;2;1
006150;OA;ENC;9;56;észrevétel;lényegtelen;FOIL;65;good;1,396425155;;;;2;1
006150;OA;ENC;9;60;rosszullét;fizikai;FOIL;66;good;0,783663457;;;;2;1
006150;OA;ENC;9;87;telefonszám;otthoni;TARG;67;good;0,871555747;;;;2;1
006150;OA;ENC;9;74;repülõjegy;érvényes;TARG;68;good;0,935847539;;;;2;1
006150;OA;ENC;9;112;játszma;belpolitikai;FOIL;69;no-good;1,124383117;;;;2;1
006150;OA;ENC;9;45;kolostor;hajdani;TARG;70;no-good;1,0884944;;;;2;1
006150;OA;ENC;9;12;boríték;érvénytelen;TARG;71;no-good;1,930785269;;;;2;1
006150;OA;ENC;9;73;felsorolás;tartalmi;FOIL;72;good;1,660386595;;;;2;1
006150;OA;ENC;9;2;országrész;középsõ;FOIL;73;good;1,260010089;;;;2;1
006150;OA;ENC;9;76;szabadidõ;kellemes;TARG;74;good;1,173730685;;;;2;1
006150;OA;ENC;9;88;útvonal;ajánlatos;FOIL;75;good;1,231212034;;;;2;1
006150;OA;ENC;9;100;zöldség;rendszeres;TARG;76;no-good;1,183623835;;;;2;1
006150;OA;ENC;9;55;menetrend;szokásos;TARG;77;good;1,238406572;;;;2;1
006150;OA;ENC;9;105;szörnyeteg;képzeletbeli;FOIL;78;good;1,61767033;;;;2;1
006150;OA;ENC;9;10;gombnyomás;fölösleges;FOIL;79;None;;;;none;2;1
006150;OA;ENC;9;59;mûalkotás;korabeli;TARG;80;good;1,409844198;;;;2;1
006150;OA;ENC;9;65;novella;tanulságos;TARG;81;no-good;1,089443906;;;;2;1
006150;OA;ENC;9;42;szerencse;viszonylagos;FOIL;82;None;;;;none;2;1
006150;OA;ENC;9;38;korosztály;szerencsés;FOIL;83;good;1,046512112;;;;2;1
006150;OA;ENC;9;91;tûzijáték;nagyszabású;TARG;84;good;1,472181618;;;;2;1
006150;OA;ENC;9;13;táplálék;elégséges;FOIL;85;good;0,947269914;;;;2;1
006150;OA;ENC;9;16;csillagász;figyelmes;TARG;86;good;1,25761191;;;;2;1
006150;OA;ENC;9;64;hetilap;közérdekû;FOIL;87;good;1,390062873;;;;2;1
006150;OA;ENC;9;122;munkanap;tetszõleges;FOIL;88;good;1,617081903;;;;2;1
006150;OA;ENC;9;35;kapitány;rutinos;TARG;89;no-good;1,091596078;;;;2;1
006150;OA;ENC;9;55;pályafutás;dicséretes;FOIL;90;good;1,534832535;;;;2;1
006150;OA;ENC;9;51;levéltár;régészeti;TARG;91;no-good;1,423628052;;;;2;1
006150;OA;ENC;9;29;hangszer;autentikus;TARG;92;good;1,513182366;;;;2;1
006150;OA;ENC;9;49;havazás;folyamatos;FOIL;93;good;1,261539002;;;;2;1
006150;OA;ENC;9;121;családfõ;becsületes;FOIL;94;good;1,321740423;;;;2;1
006150;OA;ENC;9;69;ösztöndíj;tanulmányi;TARG;95;good;0,935370143;;;;2;1
006150;OA;ENC;9;114;tiltakozás;egyhangú;FOIL;96;good;1,196918164;;;;2;1
006150;OA;ENC;9;108;vészhelyzet;idõjárási;FOIL;97;good;1,09894612;;;;2;1
006150;OA;ENC;9;41;királynõ;szépséges;TARG;98;no-good;1,333301507;;;;2;1
006150;OA;ENC;9;53;matrica;fizetõs;TARG;99;no-good;1,227523484;;;;2;1
006150;OA;ENC;9;63;titkárság;egyszemélyes;FOIL;100;good;1,848268434;;;;2;1
006150;OA;REC_GYAK;9;3;sivatag;délelõtti;DISTANT;1;None;;3;2,103792862;none;2;1
006150;OA;REC_GYAK;9;1;színésznõ;tevékeny;TARG;2;old;1,355353808;3;2,064220882;1;2;1
006150;OA;REC_GYAK;9;5;hadmûvelet;rivális;FOIL;3;None;;3;0,994301097;none;2;1
006150;OA;REC_GYAK;9;6;nézõtér;arányos;FOIL;4;new;1,20485601;3;0,576177568;1;2;1
006150;OA;REC_GYAK;9;2;csokoládé;szokványos;CLOSE;5;new;1,680213948;2;2,686023569;1;2;1
006150;OA;REC_GYAK;9;4;taktika;hátrányos;FOIL;6;new;1,627475465;3;0,793736681;1;2;1
006150;OA;REC;9;77;szakadék;iszonyatos;TARG;1;old;1,661195214;3;0,731788331;1;2;1
006150;OA;REC;9;97;világítás;hangulatos;TARG;2;old;1,768067362;3;0,9300261;1;2;1
006150;OA;REC;9;34;kánikula;húsvéti;CLOSE;3;new;1,338147627;3;0,858847667;1;2;1
006150;OA;REC;9;35;kapitány;szorgalmas;CLOSE;4;new;1,664060527;3;0,577137959;1;2;1
006150;OA;REC;9;96;ventilátor;masszív;TARG;5;new;1,656051461;3;1,39314247;0;2;1
006150;OA;REC;9;15;csengõhang;egykori;DISTANT;6;new;1,351975333;3;0,727832626;1;2;1
006150;OA;REC;9;52;magazin;tudományos;TARG;7;old;1,403809407;3;0,549441493;1;2;1
006150;OA;REC;9;67;oroszlán;nyugodt;TARG;8;old;1,438741775;3;0,459662942;1;2;1
006150;OA;REC;9;47;koponya;jelentéktelen;CLOSE;9;new;1,289973801;3;1,164485985;1;2;1
006150;OA;REC;9;4;állatkert;nyilvános;DISTANT;10;new;1,433484193;3;0,416815743;1;2;1
006150;OA;REC;9;18;diáklány;feltörekvõ;DISTANT;11;new;1,48145151;3;1,136012;1;2;1
006150;OA;REC;9;59;mûalkotás;korabeli;TARG;12;old;1,723644598;3;0,5567623;1;2;1
006150;OA;REC;9;98;zarándok;keresztény;TARG;13;old;1,32941329;3;0,673599129;1;2;1
006150;OA;REC;9;52;értesítés;sokszoros;FOIL;14;new;1,585387435;3;0,459000185;1;2;1
006150;OA;REC;9;26;folyadék;optimális;CLOSE;15;new;1,232708913;3;0,506644365;1;2;1
006150;OA;REC;9;51;levéltár;régészeti;TARG;16;old;1,731903404;3;0,542066571;1;2;1
006150;OA;REC;9;30;háziorvos;szomszédos;CLOSE;17;new;1,707166485;3;0,447500059;1;2;1
006150;OA;REC;9;94;vacsora;zártkörû;TARG;18;old;1,688546463;3;0,726017585;1;2;1
006150;OA;REC;9;55;menetrend;szokásos;TARG;19;old;1,368022701;2;1,208339294;1;2;1
006150;OA;REC;9;47;császár;tudatos;FOIL;20;new;1,350312687;3;0,496780761;1;2;1
006150;OA;REC;9;48;költészet;szimbolikus;CLOSE;21;new;1,330017267;3;0,6199948;1;2;1
006150;OA;REC;9;111;hirdetés;releváns;FOIL;22;new;1,537182508;3;0,458894132;1;2;1
006150;OA;REC;9;32;horgász;tengerparti;CLOSE;23;old;1,957588522;3;0,61205882;0;2;1
006150;OA;REC;9;16;tinédzser;kíváncsi;FOIL;24;new;1,262657696;3;0,566500879;1;2;1
006150;OA;REC;9;89;törmelék;építkezési;TARG;25;old;1,032360958;3;0,318263981;1;2;1
006150;OA;REC;9;53;matrica;fizetõs;TARG;26;old;1,844629335;3;1,77397495;1;2;1
006150;OA;REC;9;44;kollégium;felsõoktatási;CLOSE;27;new;1,527779195;2;2,425625032;1;2;1
006150;OA;REC;9;10;barlang;korlátlan;DISTANT;28;new;1,418602792;3;1,110597085;1;2;1
006150;OA;REC;9;66;olimpikon;legendás;TARG;29;4;3,861243669;2;1,429849137;;2;1
006150;OA;REC;9;71;pisztoly;törvénytelen;TARG;30;new;1,714934831;2;0,609569205;0;2;1
006150;OA;REC;9;43;kolbász;tetemes;CLOSE;31;old;2,205700395;2;0,968659769;0;2;1
006150;OA;REC;9;17;csomagolás;elõzetes;DISTANT;32;new;1,356818343;3;0,552643937;1;2;1
006150;OA;REC;9;26;vallomás;következetes;FOIL;33;new;1,560989825;3;0,435187892;1;2;1
006150;OA;REC;9;58;mutatvány;szánalmas;TARG;34;old;1,43047395;2;0,446330671;1;2;1
006150;OA;REC;9;75;sütemény;születésnapi;TARG;35;old;1,108244313;3;0,44990788;1;2;1
006150;OA;REC;9;41;királynõ;gyönyörû;CLOSE;36;new;1,955845947;2;2,138379389;1;2;1
006150;OA;REC;9;61;mûemlék;természeti;TARG;37;old;1,653935365;3;0,51024179;1;2;1
006150;OA;REC;9;90;tudomány;mérnöki;TARG;38;old;1,123751771;3;0,444860538;1;2;1
006150;OA;REC;9;20;díszlet;császári;DISTANT;39;old;1,443973855;2;0,383054629;0;2;1
006150;OA;REC;9;3;alkohol;karakteres;DISTANT;40;new;2,09906959;2;0,509673268;1;2;1
006150;OA;REC;9;98;élettárs;passzív;FOIL;41;new;1,603196038;3;0,400601053;1;2;1
006150;OA;REC;9;97;pontszám;egyenlõ;FOIL;42;new;2,04136245;2;0,939537644;1;2;1
006150;OA;REC;9;92;újságcikk;botrányos;TARG;43;old;1,438744263;3;0,113051245;1;2;1
006150;OA;REC;9;70;pénztárca;ismeretlen;TARG;44;new;2,176875282;2;0,799323932;0;2;1
006150;OA;REC;9;41;operatõr;hivatásos;FOIL;45;new;1,870678084;3;0,880802934;1;2;1
006150;OA;REC;9;96;adottság;pozitív;FOIL;46;new;1,357640647;2;0,152617937;1;2;1
006150;OA;REC;9;86;távirat;udvarias;TARG;47;old;1,358067971;3;0,47684922;1;2;1
006150;OA;REC;9;39;készpénz;szerény;CLOSE;48;old;1,210679315;2;0,751550995;0;2;1
006150;OA;REC;9;115;villany;infravörös;FOIL;49;new;1,526826578;3;0,453867006;1;2;1
006150;OA;REC;9;25;fejfájás;alapfokú;DISTANT;50;new;1,63782082;3;0,587066875;1;2;1
006150;OA;REC;9;80;szerszám;trükkös;TARG;51;old;1,157385994;3;0,434256735;1;2;1
006150;OA;REC;9;29;hangszer;tipikus;CLOSE;52;new;2,221196969;3;0,711957245;1;2;1
006150;OA;REC;9;46;kommentár;tartalmas;CLOSE;53;new;2,333995365;2;1,150557512;1;2;1
006150;OA;REC;9;6;kézikönyv;technikai;FOIL;54;old;2,033808076;2;0,498922981;0;2;1
006150;OA;REC;9;72;professzor;közgazdasági;TARG;55;old;1,717656458;2;1,364551857;1;2;1
006150;OA;REC;9;13;bölcsõde;alkalmas;DISTANT;56;new;1,189924537;3;0,413967847;1;2;1
006150;OA;REC;9;62;mûvészet;vizuális;TARG;57;old;1,204359953;3;0,450958774;1;2;1
006150;OA;REC;9;11;laktanya;községi;FOIL;58;new;1,754282574;3;0,545353298;1;2;1
006150;OA;REC;9;91;tûzijáték;nagyszabású;TARG;59;old;1,217788326;3;0,556609595;1;2;1
006150;OA;REC;9;100;zaklatás;pszichés;FOIL;60;new;1,567365791;2;1,42657516;1;2;1
006150;OA;REC;9;5;áruházlánc;különös;DISTANT;61;new;1,425668884;2;1,091689381;1;2;1
006150;OA;REC;9;69;ösztöndíj;tanulmányi;TARG;62;old;1,35819393;1;1,059430122;1;2;1
006150;OA;REC;9;33;iránytû;elõnyös;CLOSE;63;old;2,227999948;2;1,073120364;0;2;1
006150;OA;REC;9;1;akadály;beszélgetési;DISTANT;64;new;1,229231538;2;0,921551144;1;2;1
006150;OA;REC;9;85;tanfolyam;gyakorlati;TARG;65;old;1,078965128;3;0,715965199;1;2;1
006150;OA;REC;9;22;egyenruha;méteres;DISTANT;66;new;1,725876388;3;1,801317179;1;2;1
006150;OA;REC;9;87;telefonszám;otthoni;TARG;67;old;1,750587493;3;0,449087753;1;2;1
006150;OA;REC;9;93;útlezárás;helyszíni;TARG;68;old;1,604750454;3;0,533831091;1;2;1
006150;OA;REC;9;40;kesztyû;harcias;CLOSE;69;None;;2;0,725999858;none;2;1
006150;OA;REC;9;27;gázvezeték;szabadtéri;CLOSE;70;old;1,36461468;3;0,78986868;0;2;1
006150;OA;REC;9;9;barátnõ;méltányos;DISTANT;71;new;1,648893933;3;0,531894447;1;2;1
006150;OA;REC;9;82;szõnyeg;használati;TARG;72;old;1,822073823;3;0,497596534;1;2;1
006150;OA;REC;9;50;lépcsõház;komplett;CLOSE;73;new;1,441235745;3;0,531692914;1;2;1
006150;OA;REC;9;25;szekrény;kaotikus;FOIL;74;old;2,060110296;2;0,503067779;0;2;1
006150;OA;REC;9;94;protokoll;sebészeti;FOIL;75;new;1,641606715;3;0,948836459;1;2;1
006150;OA;REC;9;63;nagymama;kedvenc;TARG;76;old;1,254645209;3;1,087079627;1;2;1
006150;OA;REC;9;21;díszterem;egyszeri;DISTANT;77;new;1,764787787;3;0,927765697;1;2;1
006150;OA;REC;9;8;baktérium;egynapos;DISTANT;78;new;1,81671734;3;0,770508771;1;2;1
006150;OA;REC;9;64;napsütés;felhõtlen;TARG;79;old;1,881063248;2;0,298396507;1;2;1
006150;OA;REC;9;54;mellény;sportos;TARG;80;None;;2;0,215713594;none;2;1
006150;OA;REC;9;6;ásványvíz;mocskos;DISTANT;81;new;1,240309005;3;0,398123256;1;2;1
006150;OA;REC;9;3;fõhadnagy;kíméletlen;FOIL;82;new;1,326100438;3;0,400980172;1;2;1
006150;OA;REC;9;57;monitor;kijelzõs;TARG;83;old;1,625052405;2;0,365324711;1;2;1
006150;OA;REC;9;2;albérlet;munkaügyi;DISTANT;84;new;1,46517835;3;0,462386125;1;2;1
006150;OA;REC;9;19;diktátor;térségi;DISTANT;85;new;1,895296197;3;0,445959017;1;2;1
006150;OA;REC;9;38;kerékpár;intelligens;CLOSE;86;new;2,327188654;2;1,035250529;1;2;1
006150;OA;REC;9;65;novella;tanulságos;TARG;87;old;1,346156382;2;0,855355985;1;2;1
006150;OA;REC;9;45;tehetség;példaértékû;FOIL;88;old;2,236281457;2;0,569824306;0;2;1
006150;OA;REC;9;23;étterem;egyházi;DISTANT;89;old;1,302588267;1;1,82791921;0;2;1
006150;OA;REC;9;42;kirándulás;tegnapi;CLOSE;90;new;1,285113064;3;0,55803743;1;2;1
006150;OA;REC;9;100;zöldség;rendszeres;TARG;91;old;1,489953212;2;1,332430375;1;2;1
006150;OA;REC;9;95;végállomás;ideiglenes;TARG;92;old;1,541370536;1;1,5009691;1;2;1
006150;OA;REC;9;30;ábrázolás;szokatlan;FOIL;93;new;1,448937536;2;1,719690448;1;2;1
006150;OA;REC;9;24;fejedelem;pártatlan;DISTANT;94;new;2,01013387;2;1,167020386;1;2;1
006150;OA;REC;9;16;csillagász;taláros;DISTANT;95;new;1,528976574;2;1,539652219;1;2;1
006150;OA;REC;9;49;legénység;szárazföldi;CLOSE;96;new;1,694943888;2;1,625555304;1;2;1
006150;OA;REC;9;88;tévémûsor;közéleti;TARG;97;None;;3;0,938405576;none;2;1
006150;OA;REC;9;53;végeredmény;lehetséges;FOIL;98;None;;2;0,454148468;none;2;1
006150;OA;REC;9;73;rémálom;szomorú;TARG;99;old;1,700367238;3;0,369432187;1;2;1
006150;OA;REC;9;99;zeneszerzõ;nagyszerû;TARG;100;old;1,57060649;3;0,413640045;1;2;1
006150;OA;REC;9;37;képregény;félelmetes;CLOSE;101;None;;2;0,619686591;none;2;1
006150;OA;REC;9;68;osztályzat;közepes;TARG;102;old;1,281110708;2;0,326090486;1;2;1
006150;OA;REC;9;8;publicista;hiteles;FOIL;103;old;2,026018892;2;1,060324891;0;2;1
006150;OA;REC;9;22;bankrablás;tavalyi;FOIL;104;new;1,513284066;3;0,571743533;1;2;1
006150;OA;REC;9;84;tananyag;iskolai;TARG;105;old;1,083888067;2;0,388730828;1;2;1
006150;OA;REC;9;76;szabadidõ;kellemes;TARG;106;old;1,715856347;2;0,475042577;1;2;1
006150;OA;REC;9;12;boríték;kétoldalú;DISTANT;107;new;1,950237548;3;0,68921544;1;2;1
006150;OA;REC;9;14;csecsemõ;névtelen;DISTANT;108;new;1,0619328;3;0,397419135;1;2;1
006150;OA;REC;9;7;testmozgás;speciális;FOIL;109;new;1,581382279;3;0,56005307;1;2;1
006150;OA;REC;9;32;szállítás;idõigényes;FOIL;110;new;1,55704967;3;0,592427402;1;2;1
006150;OA;REC;9;11;benzinkút;nagyvállalati;DISTANT;111;new;1,600797548;3;0,839347183;1;2;1
006150;OA;REC;9;7;aszfalt;milliárdos;DISTANT;112;new;1,885504436;3;0,482322642;1;2;1
006150;OA;REC;9;81;színdarab;humoros;TARG;113;new;1,503864891;3;0,488163675;0;2;1
006150;OA;REC;9;45;kolostor;reneszánsz;CLOSE;114;None;;2;1,741197242;none;2;1
006150;OA;REC;9;31;helyezés;változatlan;CLOSE;115;new;1,391855832;2;1,064866223;1;2;1
006150;OA;REC;9;74;repülõjegy;érvényes;TARG;116;new;1,461622912;2;1,25303108;0;2;1
006150;OA;REC;9;36;kastély;páratlan;CLOSE;117;old;1,300425521;2;0,418138147;0;2;1
006150;OA;REC;9;78;szélvihar;hirtelen;TARG;118;old;1,146157688;3;0,467802321;1;2;1
006150;OA;REC;9;60;mûanyag;felesleges;TARG;119;old;1,283933412;3;0,471963913;1;2;1
006150;OA;REC;9;28;gorilla;problémás;CLOSE;120;new;1,954391053;3;1,133343244;1;2;1
006150;OA;REC;9;79;szemüveg;kényelmes;TARG;121;new;1,325447633;3;0,466768532;0;2;1
006150;OA;REC;9;83;találmány;forradalmi;TARG;122;old;2,188918428;2;1,037223872;1;2;1
006150;OA;REC;9;65;alapanyag;folyékony;FOIL;123;new;1,479832715;3;0,731540458;1;2;1
006150;OA;REC;9;56;mikrofon;vezetékes;TARG;124;old;1,060388336;3;0,451302437;1;2;1
006150;OA;REC;9;113;védõoltás;hatékony;FOIL;125;None;;3;1,676190133;none;2;1
030718;OA;ENC_GYAK;1;4;retorika;ésszerû;FOIL;1;None;;;;none;1;1
030718;OA;ENC_GYAK;1;6;karrier;termékeny;FOIL;2;no-good;0,473994465;;;;1;1
030718;OA;ENC_GYAK;1;3;sivatag;végtelen;TARG;3;no-good;1,773461025;;;;1;1
030718;OA;ENC_GYAK;1;1;színésznõ;tevékeny;TARG;4;no-good;1,855060749;;;;1;1
030718;OA;ENC_GYAK;1;5;hulladék;darabos;FOIL;5;good;1,375283406;;;;1;1
030718;OA;ENC_GYAK;1;2;csokoládé;közönséges;TARG;6;None;;;;none;1;1
030718;OA;ENC;1;76;szabadidõ;kellemes;TARG;1;good;1,774412086;;;;1;1
030718;OA;ENC;1;95;végállomás;ideiglenes;TARG;2;None;;;;none;1;1
030718;OA;ENC;1;20;földrengés;sorozatos;FOIL;3;None;;;;none;1;1
030718;OA;ENC;1;52;értesítés;sokszoros;FOIL;4;no-good;1,749336154;;;;1;1
030718;OA;ENC;1;7;aszfalt;hibátlan;TARG;5;good;1,774664625;;;;1;1
030718;OA;ENC;1;32;horgász;balatoni;TARG;6;None;;;;none;1;1
030718;OA;ENC;1;3;fõhadnagy;kíméletlen;FOIL;7;no-good;1,750693703;;;;1;1
030718;OA;ENC;1;84;tananyag;iskolai;TARG;8;good;1,752225727;;;;1;1
030718;OA;ENC;1;22;egyenruha;rendõri;TARG;9;good;1,35053061;;;;1;1
030718;OA;ENC;1;8;publicista;hiteles;FOIL;10;good;1,539296451;;;;1;1
030718;OA;ENC;1;12;boríték;érvénytelen;TARG;11;no-good;1,663761751;;;;1;1
030718;OA;ENC;1;104;pszichiáter;hûséges;FOIL;12;no-good;1,541926021;;;;1;1
030718;OA;ENC;1;41;királynõ;szépséges;TARG;13;good;1,892438904;;;;1;1
030718;OA;ENC;1;97;pontszám;egyenlõ;FOIL;14;no-good;1,461108792;;;;1;1
030718;OA;ENC;1;40;kesztyû;férfias;TARG;15;None;;;;none;1;1
030718;OA;ENC;1;85;bûntett;embertelen;FOIL;16;None;;;;none;1;1
030718;OA;ENC;1;55;pályafutás;dicséretes;FOIL;17;good;1,846949978;;;;1;1
030718;OA;ENC;1;83;találmány;forradalmi;TARG;18;good;1,554862388;;;;1;1
030718;OA;ENC;1;72;asszisztens;tárgyalási;FOIL;19;no-good;1,511457836;;;;1;1
030718;OA;ENC;1;43;kitüntetés;jelképes;FOIL;20;no-good;1,492481699;;;;1;1
030718;OA;ENC;1;98;zarándok;keresztény;TARG;21;good;1,429907562;;;;1;1
030718;OA;ENC;1;61;üzemanyag;mesterséges;FOIL;22;good;1,546911786;;;;1;1
030718;OA;ENC;1;44;kollégium;fõiskolai;TARG;23;good;1,393447502;;;;1;1
030718;OA;ENC;1;42;kirándulás;hétvégi;TARG;24;good;1,270389823;;;;1;1
030718;OA;ENC;1;82;értékrend;szubjektív;FOIL;25;no-good;1,446134391;;;;1;1
030718;OA;ENC;1;77;õrmester;méltatlan;FOIL;26;no-good;1,875075653;;;;1;1
030718;OA;ENC;1;50;lépcsõház;emeletes;TARG;27;None;;;;none;1;1
030718;OA;ENC;1;115;villany;infravörös;FOIL;28;None;;;;none;1;1
030718;OA;ENC;1;6;ásványvíz;minõségi;TARG;29;good;1,2090479;;;;1;1
030718;OA;ENC;1;65;novella;tanulságos;TARG;30;good;1,373998633;;;;1;1
030718;OA;ENC;1;16;tinédzser;kíváncsi;FOIL;31;None;;;;none;1;1
030718;OA;ENC;1;56;mikrofon;vezetékes;TARG;32;good;1,328829734;;;;1;1
030718;OA;ENC;1;44;veszekedés;hétköznapi;FOIL;33;good;1,623722613;;;;1;1
030718;OA;ENC;1;35;kapitány;rutinos;TARG;34;good;1,273806554;;;;1;1
030718;OA;ENC;1;76;meglátás;egyoldalú;FOIL;35;good;1,576562021;;;;1;1
030718;OA;ENC;1;58;mutatvány;szánalmas;TARG;36;good;1,276829239;;;;1;1
030718;OA;ENC;1;61;mûemlék;természeti;TARG;37;no-good;1,134952792;;;;1;1
030718;OA;ENC;1;37;korszak;bizonytalan;FOIL;38;no-good;1,705387338;;;;1;1
030718;OA;ENC;1;37;képregény;izgalmas;TARG;39;good;1,482181122;;;;1;1
030718;OA;ENC;1;13;bölcsõde;kertvárosi;TARG;40;good;1,878578844;;;;1;1
030718;OA;ENC;1;23;fürdõszoba;keskeny;FOIL;41;good;1,76298504;;;;1;1
030718;OA;ENC;1;57;hadjárat;szerencsétlen;FOIL;42;no-good;1,723035473;;;;1;1
030718;OA;ENC;1;85;tanfolyam;gyakorlati;TARG;43;good;1,21118048;;;;1;1
030718;OA;ENC;1;5;áruházlánc;veszteséges;TARG;44;good;1,613220815;;;;1;1
030718;OA;ENC;1;86;választék;tetszetõs;FOIL;45;no-good;1,305825735;;;;1;1
030718;OA;ENC;1;35;fenyegetés;írásbeli;FOIL;46;no-good;1,808584685;;;;1;1
030718;OA;ENC;1;48;költészet;mágikus;TARG;47;no-good;1,782236419;;;;1;1
030718;OA;ENC;1;51;levéltár;régészeti;TARG;48;no-good;1,68146058;;;;1;1
030718;OA;ENC;1;107;üdvözlet;kölcsönös;FOIL;49;good;1,899350118;;;;1;1
030718;OA;ENC;1;46;kommentár;terjedelmes;TARG;50;good;1,447500648;;;;1;1
030718;OA;ENC;1;1;akadály;lehetetlen;TARG;51;no-good;1,64852517;;;;1;1
030718;OA;ENC;1;2;országrész;középsõ;FOIL;52;good;1,429186957;;;;1;1
030718;OA;ENC;1;47;koponya;parányi;TARG;53;good;1,507319567;;;;1;1
030718;OA;ENC;1;91;tûzijáték;nagyszabású;TARG;54;None;;;;none;1;1
030718;OA;ENC;1;100;zaklatás;pszichés;FOIL;55;None;;;;none;1;1
030718;OA;ENC;1;120;áramlat;kulturális;FOIL;56;no-good;1,349453902;;;;1;1
030718;OA;ENC;1;92;újságcikk;botrányos;TARG;57;good;1,652263483;;;;1;1
030718;OA;ENC;1;53;matrica;fizetõs;TARG;58;no-good;1,848606405;;;;1;1
030718;OA;ENC;1;80;népcsoport;kétnyelvû;FOIL;59;None;;;;none;1;1
030718;OA;ENC;1;10;gombnyomás;fölösleges;FOIL;60;no-good;1,713056167;;;;1;1
030718;OA;ENC;1;25;fejfájás;kellemetlen;TARG;61;good;1,266471748;;;;1;1
030718;OA;ENC;1;62;mûvészet;vizuális;TARG;62;None;;;;none;1;1
030718;OA;ENC;1;66;csarnok;ünnepélyes;FOIL;63;no-good;1,507844237;;;;1;1
030718;OA;ENC;1;116;hazugság;kisebbik;FOIL;64;good;1,87635576;;;;1;1
030718;OA;ENC;1;82;szõnyeg;használati;TARG;65;no-good;1,690713682;;;;1;1
030718;OA;ENC;1;64;hetilap;közérdekû;FOIL;66;no-good;1,441556357;;;;1;1
030718;OA;ENC;1;41;operatõr;hivatásos;FOIL;67;good;1,454138487;;;;1;1
030718;OA;ENC;1;10;barlang;lakatlan;TARG;68;good;1,850926212;;;;1;1
030718;OA;ENC;1;102;vetítés;farsangi;FOIL;69;None;;;;none;1;1
030718;OA;ENC;1;34;kánikula;tavaszi;TARG;70;None;;;;none;1;1
030718;OA;ENC;1;38;kerékpár;elektromos;TARG;71;None;;;;none;1;1
030718;OA;ENC;1;117;megjegyzés;rosszindulatú;FOIL;72;good;1,511645063;;;;1;1
030718;OA;ENC;1;79;szivárgás;fokozatos;FOIL;73;good;1,586471039;;;;1;1
030718;OA;ENC;1;19;diktátor;kegyetlen;TARG;74;good;1,287316109;;;;1;1
030718;OA;ENC;1;17;borvidék;csapadékos;FOIL;75;no-good;1,335886499;;;;1;1
030718;OA;ENC;1;51;sorrend;szabályos;FOIL;76;None;;;;none;1;1
030718;OA;ENC;1;28;gorilla;érzékeny;TARG;77;no-good;1,739448907;;;;1;1
030718;OA;ENC;1;8;baktérium;növényi;TARG;78;no-good;1,375974154;;;;1;1
030718;OA;ENC;1;113;védõoltás;hatékony;FOIL;79;good;1,312054598;;;;1;1
030718;OA;ENC;1;67;oroszlán;nyugodt;TARG;80;good;1,122238796;;;;1;1
030718;OA;ENC;1;9;bábszínház;virtuális;FOIL;81;no-good;1,617811911;;;;1;1
030718;OA;ENC;1;110;hátrány;mentális;FOIL;82;no-good;1,605507823;;;;1;1
030718;OA;ENC;1;14;csecsemõ;egészséges;TARG;83;good;1,098811515;;;;1;1
030718;OA;ENC;1;73;rémálom;szomorú;TARG;84;no-good;1,761708042;;;;1;1
030718;OA;ENC;1;34;korlátozás;lokális;FOIL;85;None;;;;none;1;1
030718;OA;ENC;1;94;vacsora;zártkörû;TARG;86;good;1,637849829;;;;1;1
030718;OA;ENC;1;77;szakadék;iszonyatos;TARG;87;None;;;;none;1;1
030718;OA;ENC;1;114;tiltakozás;egyhangú;FOIL;88;good;1,3615266;;;;1;1
030718;OA;ENC;1;29;hangszer;autentikus;TARG;89;no-good;1,904136838;;;;1;1
030718;OA;ENC;1;88;útvonal;ajánlatos;FOIL;90;good;1,410356682;;;;1;1
030718;OA;ENC;1;89;ellenõr;közömbös;FOIL;91;no-good;1,86937146;;;;1;1
030718;OA;ENC;1;31;helyezés;végleges;TARG;92;good;1,744043424;;;;1;1
030718;OA;ENC;1;111;hirdetés;releváns;FOIL;93;None;;;;none;1;1
030718;OA;ENC;1;89;törmelék;építkezési;TARG;94;None;;;;none;1;1
030718;OA;ENC;1;87;telefonszám;otthoni;TARG;95;good;1,289664839;;;;1;1
030718;OA;ENC;1;108;vészhelyzet;idõjárási;FOIL;96;good;1,347235172;;;;1;1
030718;OA;ENC;1;78;szélvihar;hirtelen;TARG;97;good;1,255864207;;;;1;1
030718;OA;ENC;1;49;havazás;folyamatos;FOIL;98;good;1,371092265;;;;1;1
030718;OA;ENC;1;39;utasítás;elnökségi;FOIL;99;no-good;1,753752153;;;;1;1
030718;OA;ENC;1;70;pénztárca;ismeretlen;TARG;100;no-good;1,840643052;;;;1;1
030718;OA;ENC;1;122;munkanap;tetszõleges;FOIL;1;no-good;1,818199489;;;;1;1
030718;OA;ENC;1;121;családfõ;becsületes;FOIL;2;good;1,940910083;;;;1;1
030718;OA;ENC;1;63;nagymama;kedvenc;TARG;3;good;1,409038943;;;;1;1
030718;OA;ENC;1;40;engedmény;felelõtlen;FOIL;4;no-good;1,449366073;;;;1;1
030718;OA;ENC;1;21;díszterem;patinás;TARG;5;None;;;;none;1;1
030718;OA;ENC;1;96;ventilátor;masszív;TARG;6;no-good;1,588449981;;;;1;1
030718;OA;ENC;1;28;követelés;eredményes;FOIL;7;good;1,627795571;;;;1;1
030718;OA;ENC;1;1;merénylõ;erõszakos;FOIL;8;no-good;1,846459519;;;;1;1
030718;OA;ENC;1;88;tévémûsor;közéleti;TARG;9;good;1,514102335;;;;1;1
030718;OA;ENC;1;81;színdarab;humoros;TARG;10;good;1,751812709;;;;1;1
030718;OA;ENC;1;26;vallomás;következetes;FOIL;11;good;1,62288507;;;;1;1
030718;OA;ENC;1;91;fertõzés;hosszútávú;FOIL;12;no-good;1,593952952;;;;1;1
030718;OA;ENC;1;75;sütemény;születésnapi;TARG;13;good;1,077315904;;;;1;1
030718;OA;ENC;1;66;olimpikon;legendás;TARG;14;good;1,946675856;;;;1;1
030718;OA;ENC;1;81;mellékhatás;közvetett;FOIL;15;None;;;;none;1;1
030718;OA;ENC;1;42;szerencse;viszonylagos;FOIL;16;good;1,474115136;;;;1;1
030718;OA;ENC;1;100;zöldség;rendszeres;TARG;17;no-good;1,596906904;;;;1;1
030718;OA;ENC;1;30;háziorvos;körzeti;TARG;18;good;1,949142147;;;;1;1
030718;OA;ENC;1;67;védekezés;célszerû;FOIL;19;good;1,897740342;;;;1;1
030718;OA;ENC;1;11;laktanya;községi;FOIL;20;no-good;1,349348781;;;;1;1
030718;OA;ENC;1;36;kastély;csodálatos;TARG;21;good;1,795603532;;;;1;1
030718;OA;ENC;1;73;felsorolás;tartalmi;FOIL;22;good;1,604690805;;;;1;1
030718;OA;ENC;1;112;játszma;belpolitikai;FOIL;23;no-good;1,901224251;;;;1;1
030718;OA;ENC;1;20;díszlet;színpadi;TARG;24;good;1,297119384;;;;1;1
030718;OA;ENC;1;123;lázadás;széleskörû;FOIL;25;no-good;1,85425866;;;;1;1
030718;OA;ENC;1;43;kolbász;tonnányi;TARG;26;no-good;1,801162796;;;;1;1
030718;OA;ENC;1;5;díszvendég;nagyvonalú;FOIL;27;no-good;1,931929424;;;;1;1
030718;OA;ENC;1;68;vetélytárs;egyedüli;FOIL;28;None;;;;none;1;1
030718;OA;ENC;1;80;szerszám;trükkös;TARG;29;good;1,840935088;;;;1;1
030718;OA;ENC;1;15;csengõhang;többféle;TARG;30;good;1,864534978;;;;1;1
030718;OA;ENC;1;71;vezetõség;tartományi;FOIL;31;no-good;1,232208024;;;;1;1
030718;OA;ENC;1;22;bankrablás;tavalyi;FOIL;32;good;1,918263432;;;;1;1
030718;OA;ENC;1;54;mellény;sportos;TARG;33;good;1,344636391;;;;1;1
030718;OA;ENC;1;46;ügyintézés;zökkenõmentes;FOIL;34;good;1,576609605;;;;1;1
030718;OA;ENC;1;68;osztályzat;közepes;TARG;35;good;1,496091255;;;;1;1
030718;OA;ENC;1;23;étterem;elegáns;TARG;36;good;1,015081388;;;;1;1
030718;OA;ENC;1;30;ábrázolás;szokatlan;FOIL;37;good;1,695890095;;;;1;1
030718;OA;ENC;1;74;zûrzavar;érzelmi;FOIL;38;good;1,69453068;;;;1;1
030718;OA;ENC;1;18;diáklány;ártatlan;TARG;39;no-good;1,939922945;;;;1;1
030718;OA;ENC;1;90;tudomány;mérnöki;TARG;40;good;1,101654126;;;;1;1
030718;OA;ENC;1;63;titkárság;egyszemélyes;FOIL;41;good;1,331341121;;;;1;1
030718;OA;ENC;1;59;mûalkotás;korabeli;TARG;42;good;1,928165297;;;;1;1
030718;OA;ENC;1;6;kézikönyv;technikai;FOIL;43;no-good;1,522613062;;;;1;1
030718;OA;ENC;1;69;ösztöndíj;tanulmányi;TARG;44;good;1,318045229;;;;1;1
030718;OA;ENC;1;72;professzor;közgazdasági;TARG;45;None;;;;none;1;1
030718;OA;ENC;1;33;parancs;vitathatatlan;FOIL;46;None;;;;none;1;1
030718;OA;ENC;1;14;focista;rugalmas;FOIL;47;no-good;1,873724013;;;;1;1
030718;OA;ENC;1;4;állatkert;egzotikus;TARG;48;good;1,635216527;;;;1;1
030718;OA;ENC;1;96;adottság;pozitív;FOIL;49;good;1,228727226;;;;1;1
030718;OA;ENC;1;87;alkatrész;mágneses;FOIL;50;good;1,677475637;;;;1;1
030718;OA;ENC;1;93;útlezárás;helyszíni;TARG;51;good;1,973862287;;;;1;1
030718;OA;ENC;1;21;frontember;lendületes;FOIL;52;no-good;1,432362658;;;;1;1
030718;OA;ENC;1;47;császár;tudatos;FOIL;53;no-good;1,729159837;;;;1;1
030718;OA;ENC;1;64;napsütés;felhõtlen;TARG;54;None;;;;none;1;1
030718;OA;ENC;1;15;küldemény;dobozos;FOIL;55;None;;;;none;1;1
030718;OA;ENC;1;25;szekrény;kaotikus;FOIL;56;None;;;;none;1;1
030718;OA;ENC;1;52;magazin;tudományos;TARG;57;good;1,769958767;;;;1;1
030718;OA;ENC;1;27;gázvezeték;felszíni;TARG;58;good;1,418484248;;;;1;1
030718;OA;ENC;1;105;szörnyeteg;képzeletbeli;FOIL;59;None;;;;none;1;1
030718;OA;ENC;1;39;készpénz;csekély;TARG;60;no-good;1,401746744;;;;1;1
030718;OA;ENC;1;18;olvasmány;gyermekkori;FOIL;61;good;1,556262234;;;;1;1
030718;OA;ENC;1;56;észrevétel;lényegtelen;FOIL;62;good;1,425617521;;;;1;1
030718;OA;ENC;1;45;kolostor;hajdani;TARG;63;good;1,544898011;;;;1;1
030718;OA;ENC;1;9;barátnõ;középkorú;TARG;64;no-good;1,498835276;;;;1;1
030718;OA;ENC;1;45;tehetség;példaértékû;FOIL;65;None;;;;none;1;1
030718;OA;ENC;1;3;alkohol;legális;TARG;66;no-good;1,13156343;;;;1;1
030718;OA;ENC;1;55;menetrend;szokásos;TARG;67;good;1,219053019;;;;1;1
030718;OA;ENC;1;78;dulakodás;szándékos;FOIL;68;good;1,289236582;;;;1;1
030718;OA;ENC;1;24;fejedelem;történelmi;TARG;69;no-good;1,301637705;;;;1;1
030718;OA;ENC;1;2;albérlet;szegényes;TARG;70;good;1,341103033;;;;1;1
030718;OA;ENC;1;98;élettárs;passzív;FOIL;71;no-good;1,689717213;;;;1;1
030718;OA;ENC;1;92;házastárs;eszméletlen;FOIL;72;None;;;;none;1;1
030718;OA;ENC;1;99;zeneszerzõ;nagyszerû;TARG;73;good;1,447392418;;;;1;1
030718;OA;ENC;1;49;legénység;katonai;TARG;74;no-good;1,378627361;;;;1;1
030718;OA;ENC;1;48;nézõpont;kézenfekvõ;FOIL;75;no-good;1,651020074;;;;1;1
030718;OA;ENC;1;36;berendezés;egyszerû;FOIL;76;good;1,085303205;;;;1;1
030718;OA;ENC;1;71;pisztoly;törvénytelen;TARG;77;no-good;1,928324222;;;;1;1
030718;OA;ENC;1;124;kertész;szakképzett;FOIL;78;good;1,220634182;;;;1;1
030718;OA;ENC;1;11;benzinkút;hajnali;TARG;79;no-good;1,911168101;;;;1;1
030718;OA;ENC;1;74;repülõjegy;érvényes;TARG;80;good;1,413565971;;;;1;1
030718;OA;ENC;1;54;tartozás;nagymértékû;FOIL;81;good;1,841870911;;;;1;1
030718;OA;ENC;1;17;csomagolás;ízléses;TARG;82;good;1,255822221;;;;1;1
030718;OA;ENC;1;84;útmutatás;szakszerû;FOIL;83;no-good;1,431702699;;;;1;1
030718;OA;ENC;1;97;világítás;hangulatos;TARG;84;good;1,319257848;;;;1;1
030718;OA;ENC;1;50;leépítés;túlzott;FOIL;85;no-good;1,424170713;;;;1;1
030718;OA;ENC;1;109;mozzanat;színészi;FOIL;86;no-good;1,59522373;;;;1;1
030718;OA;ENC;1;33;iránytû;hasznos;TARG;87;good;1,577369086;;;;1;1
030718;OA;ENC;1;7;testmozgás;speciális;FOIL;88;good;1,340987649;;;;1;1
030718;OA;ENC;1;26;folyadék;elegendõ;TARG;89;good;1,279367995;;;;1;1
030718;OA;ENC;1;60;mûanyag;felesleges;TARG;90;good;1,751025859;;;;1;1
030718;OA;ENC;1;19;mellékutca;rendezetlen;FOIL;91;no-good;1,407482038;;;;1;1
030718;OA;ENC;1;79;szemüveg;kényelmes;TARG;92;good;1,318414084;;;;1;1
030718;OA;ENC;1;118;kiképzés;lélektani;FOIL;93;no-good;1,865990805;;;;1;1
030718;OA;ENC;1;93;testrész;elõnytelen;FOIL;94;None;;;;none;1;1
030718;OA;ENC;1;57;monitor;kijelzõs;TARG;95;good;1,342365102;;;;1;1
030718;OA;ENC;1;24;irodaház;szemközti;FOIL;96;good;1,4960558;;;;1;1
030718;OA;ENC;1;86;távirat;udvarias;TARG;97;good;1,600458301;;;;1;1
030718;OA;ENC;1;32;szállítás;idõigényes;FOIL;98;None;;;;none;1;1
030718;OA;ENC;1;16;csillagász;figyelmes;TARG;99;good;1,345637214;;;;1;1
030718;OA;ENC;1;70;kritika;érthetetlen;FOIL;100;good;1,913100704;;;;1;1
030718;OA;REC_GYAK;1;4;taktika;hátrányos;FOIL;1;None;;3;6,027834882;none;1;1
030718;OA;REC_GYAK;1;5;hadmûvelet;rivális;FOIL;2;new;1,616862405;1;2,883100896;1;1;1
030718;OA;REC_GYAK;1;1;színésznõ;tevékeny;TARG;3;None;;3;2,373092978;none;1;1
030718;OA;REC_GYAK;1;2;csokoládé;szokványos;CLOSE;4;old;1,691805008;3;1,700525043;0;1;1
030718;OA;REC_GYAK;1;6;nézõtér;arányos;FOIL;5;new;1,914291241;1;2,011109197;1;1;1
030718;OA;REC_GYAK;1;3;sivatag;délelõtti;DISTANT;6;new;1,794387803;3;1,893494775;1;1;1
030718;OA;REC;1;7;aszfalt;milliárdos;DISTANT;1;new;1,656638429;1;2,763839067;1;1;1
030718;OA;REC;1;42;kirándulás;tegnapi;CLOSE;2;new;2,277395273;3;3,026527717;1;1;1
030718;OA;REC;1;60;mûanyag;felesleges;TARG;3;new;2,250721382;1;1,748700454;0;1;1
030718;OA;REC;1;3;alkohol;karakteres;DISTANT;4;new;1,928730398;1;1,097100661;1;1;1
030718;OA;REC;1;77;szakadék;iszonyatos;TARG;5;new;2,637083506;3;1,57835778;0;1;1
030718;OA;REC;1;62;gyulladás;fájdalmas;FOIL;6;old;3,696960895;1;2,435976879;0;1;1
030718;OA;REC;1;69;ösztöndíj;tanulmányi;TARG;7;old;1,95868231;3;1,323429395;1;1;1
030718;OA;REC;1;75;jutalom;kívánatos;FOIL;8;new;1,625778997;1;1,939035329;1;1;1
030718;OA;REC;1;26;folyadék;optimális;CLOSE;9;None;;3;2,064818368;none;1;1
030718;OA;REC;1;43;kolbász;tetemes;CLOSE;10;new;2,155026165;3;1,766052509;1;1;1
030718;OA;REC;1;83;találmány;forradalmi;TARG;11;None;;1;1,702053024;none;1;1
030718;OA;REC;1;80;szerszám;trükkös;TARG;12;new;1,443260991;1;1,879078633;0;1;1
030718;OA;REC;1;2;albérlet;munkaügyi;DISTANT;13;new;1,870937695;3;0,822280533;1;1;1
030718;OA;REC;1;8;baktérium;egynapos;DISTANT;14;new;1,667126854;3;1,003324051;1;1;1
030718;OA;REC;1;93;útlezárás;helyszíni;TARG;15;new;2,066412594;1;2,787308645;0;1;1
030718;OA;REC;1;64;napsütés;felhõtlen;TARG;16;None;;1;1,138361748;none;1;1
030718;OA;REC;1;59;sorsolás;helytelen;FOIL;17;new;2,238303465;3;1,870051322;1;1;1
030718;OA;REC;1;86;távirat;udvarias;TARG;18;old;2,129191063;3;1,59434731;1;1;1
030718;OA;REC;1;55;menetrend;szokásos;TARG;19;old;1,867994628;3;1,258160066;1;1;1
030718;OA;REC;1;94;protokoll;sebészeti;FOIL;20;new;1,959603826;3;1,468252018;1;1;1
030718;OA;REC;1;90;mozdulat;harmonikus;FOIL;21;old;2,333889208;3;1,387582207;0;1;1
030718;OA;REC;1;88;tévémûsor;közéleti;TARG;22;old;1,821137579;1;2,320985185;1;1;1
030718;OA;REC;1;63;nagymama;kedvenc;TARG;23;new;0,396390569;1;1,504201715;0;1;1
030718;OA;REC;1;101;diskurzus;társadalmi;FOIL;24;None;;3;0,92961366;none;1;1
030718;OA;REC;1;106;munkagép;funkcionális;FOIL;25;new;1,748790024;3;0,735347025;1;1;1
030718;OA;REC;1;97;világítás;hangulatos;TARG;26;old;1,654994442;3;1,167143027;1;1;1
030718;OA;REC;1;96;ventilátor;masszív;TARG;27;old;1,784588882;3;1,267009169;1;1;1
030718;OA;REC;1;25;fejfájás;alapfokú;DISTANT;28;new;2,254253808;3;2,216854505;1;1;1
030718;OA;REC;1;39;készpénz;szerény;CLOSE;29;new;2,004868826;3;0,961536428;1;1;1
030718;OA;REC;1;72;professzor;közgazdasági;TARG;30;old;1,840671976;3;1,225661311;1;1;1
030718;OA;REC;1;35;kapitány;szorgalmas;CLOSE;31;old;1,822912189;3;0,685581121;0;1;1
030718;OA;REC;1;81;színdarab;humoros;TARG;32;old;1,583586753;3;0,871708683;1;1;1
030718;OA;REC;1;49;legénység;szárazföldi;CLOSE;33;None;;3;1,803004584;none;1;1
030718;OA;REC;1;4;állatkert;nyilvános;DISTANT;34;new;2,018687833;3;0,558482208;1;1;1
030718;OA;REC;1;28;gorilla;problémás;CLOSE;35;new;1,875042686;3;0,852257947;1;1;1
030718;OA;REC;1;36;kastély;páratlan;CLOSE;36;new;1,538819365;3;1,082752008;1;1;1
030718;OA;REC;1;29;nyereség;pillanatnyi;FOIL;37;None;;1;1,175400282;none;1;1
030718;OA;REC;1;79;szemüveg;kényelmes;TARG;38;old;1,723463109;3;1,48275742;1;1;1
030718;OA;REC;1;46;kommentár;tartalmas;CLOSE;39;None;;1;2,004120231;none;1;1
030718;OA;REC;1;38;kerékpár;intelligens;CLOSE;40;new;1,734477759;1;1,476768343;1;1;1
030718;OA;REC;1;95;végállomás;ideiglenes;TARG;41;new;1,602344874;3;1,729338045;0;1;1
030718;OA;REC;1;91;tûzijáték;nagyszabású;TARG;42;old;1,720703226;3;0,653265239;1;1;1
030718;OA;REC;1;125;csemege;temérdek;FOIL;43;new;2,248516649;3;1,840081061;1;1;1
030718;OA;REC;1;69;célpont;potenciális;FOIL;44;new;2,055894934;3;1,339637875;1;1;1
030718;OA;REC;1;76;szabadidõ;kellemes;TARG;45;old;1,788511001;1;0,566456757;1;1;1
030718;OA;REC;1;73;rémálom;szomorú;TARG;46;None;;3;1,164947623;none;1;1
030718;OA;REC;1;40;kesztyû;harcias;CLOSE;47;new;1,703042029;2;1,689773816;1;1;1
030718;OA;REC;1;65;novella;tanulságos;TARG;48;old;1,591933268;3;0,684484197;1;1;1
030718;OA;REC;1;30;háziorvos;szomszédos;CLOSE;49;new;2,534769111;1;1,851004586;1;1;1
030718;OA;REC;1;67;oroszlán;nyugodt;TARG;50;new;1,669922192;3;0,40443665;0;1;1
030718;OA;REC;1;98;zarándok;keresztény;TARG;51;old;1,627710977;3;0,421293581;1;1;1
030718;OA;REC;1;48;költészet;szimbolikus;CLOSE;52;old;2,27206149;3;0,970055863;0;1;1
030718;OA;REC;1;24;fejedelem;pártatlan;DISTANT;53;new;1,699040914;3;1,280895043;1;1;1
030718;OA;REC;1;57;monitor;kijelzõs;TARG;54;old;1,716006076;3;0,421473654;1;1;1
030718;OA;REC;1;50;lépcsõház;komplett;CLOSE;55;new;2,222908893;1;1,862880106;1;1;1
030718;OA;REC;1;84;tananyag;iskolai;TARG;56;old;1,879867349;2;1,806249949;1;1;1
030718;OA;REC;1;100;zöldség;rendszeres;TARG;57;new;2,231779767;3;1,33990783;0;1;1
030718;OA;REC;1;15;csengõhang;egykori;DISTANT;58;new;2,188612514;3;1,65008363;1;1;1
030718;OA;REC;1;33;iránytû;elõnyös;CLOSE;59;new;1,784618739;1;1,672972556;1;1;1
030718;OA;REC;1;70;pénztárca;ismeretlen;TARG;60;new;1,791222988;3;0,584080633;0;1;1
030718;OA;REC;1;47;koponya;jelentéktelen;CLOSE;61;new;1,679512427;3;1,338669086;1;1;1
030718;OA;REC;1;45;kolostor;reneszánsz;CLOSE;62;new;2,136790848;1;1,266070859;1;1;1
030718;OA;REC;1;31;nagykövet;befolyásos;FOIL;63;new;1,742154363;3;1,520443783;1;1;1
030718;OA;REC;1;62;mûvészet;vizuális;TARG;64;old;2,230325805;1;1,44216811;1;1;1
030718;OA;REC;1;61;mûemlék;természeti;TARG;65;new;1,929477439;3;1,234232685;0;1;1
030718;OA;REC;1;5;áruházlánc;különös;DISTANT;66;new;1,658272775;1;1,629877768;1;1;1
030718;OA;REC;1;6;ásványvíz;mocskos;DISTANT;67;new;1,520991468;3;0,822153331;1;1;1
030718;OA;REC;1;89;törmelék;építkezési;TARG;68;old;1,680952082;3;0,423295538;1;1;1
030718;OA;REC;1;19;diktátor;térségi;DISTANT;69;new;2,012802634;3;1,019762054;1;1;1
030718;OA;REC;1;12;boríték;kétoldalú;DISTANT;70;new;1,580517417;3;0,510035909;1;1;1
030718;OA;REC;1;38;korosztály;szerencsés;FOIL;71;old;2,00794687;3;1,068311607;0;1;1
030718;OA;REC;1;21;díszterem;egyszeri;DISTANT;72;new;1,850158645;3;0,973048691;1;1;1
030718;OA;REC;1;95;gyûlölet;mélységes;FOIL;73;new;2,176859531;1;1,3040928;1;1;1
030718;OA;REC;1;16;csillagász;taláros;DISTANT;74;new;1,722687455;3;1,801049278;1;1;1
030718;OA;REC;1;65;alapanyag;folyékony;FOIL;75;new;2,191167753;1;1,556845996;1;1;1
030718;OA;REC;1;71;pisztoly;törvénytelen;TARG;76;new;1,851826891;1;1,849041194;0;1;1
030718;OA;REC;1;37;képregény;félelmetes;CLOSE;77;new;2,088603619;2;2,752084218;1;1;1
030718;OA;REC;1;87;telefonszám;otthoni;TARG;78;None;;1;1,427981491;none;1;1
030718;OA;REC;1;34;kánikula;húsvéti;CLOSE;79;new;2,201633164;2;1,985641394;1;1;1
030718;OA;REC;1;27;gázvezeték;szabadtéri;CLOSE;80;old;2,020534908;3;2,043127133;0;1;1
030718;OA;REC;1;119;felajánlás;tömeges;FOIL;81;new;2,256669717;3;1,699679413;1;1;1
030718;OA;REC;1;13;táplálék;elégséges;FOIL;82;new;1,753521696;3;1,497585025;1;1;1
030718;OA;REC;1;94;vacsora;zártkörû;TARG;83;new;1,683038322;3;1,571075222;0;1;1
030718;OA;REC;1;44;kollégium;felsõoktatási;CLOSE;84;old;2,109618101;3;0,660059514;0;1;1
030718;OA;REC;1;68;osztályzat;közepes;TARG;85;new;1,82238783;3;1,190541384;0;1;1
030718;OA;REC;1;66;olimpikon;legendás;TARG;86;old;1,650170712;3;1,038203569;1;1;1
030718;OA;REC;1;11;benzinkút;nagyvállalati;DISTANT;87;new;1,957268158;3;1,047571434;1;1;1
030718;OA;REC;1;58;közvetítés;globális;FOIL;88;new;1,654197329;3;1,330460036;1;1;1
030718;OA;REC;1;85;tanfolyam;gyakorlati;TARG;89;old;1,911985741;3;0,557745741;1;1;1
030718;OA;REC;1;58;mutatvány;szánalmas;TARG;90;old;1,936896217;2;0,717087139;1;1;1
030718;OA;REC;1;1;akadály;beszélgetési;DISTANT;91;new;1,756151267;2;2,354155095;1;1;1
030718;OA;REC;1;54;mellény;sportos;TARG;92;old;1,938645014;3;1,907916516;1;1;1
030718;OA;REC;1;32;horgász;tengerparti;CLOSE;93;new;1,91954043;3;2,066234076;1;1;1
030718;OA;REC;1;4;hercegnõ;türelmes;FOIL;94;new;1,787865349;3;1,357110601;1;1;1
030718;OA;REC;1;78;szélvihar;hirtelen;TARG;95;old;2,679682548;3;1,055075118;1;1;1
030718;OA;REC;1;9;barátnõ;méltányos;DISTANT;96;new;1,781967398;3;1,323513989;1;1;1
030718;OA;REC;1;92;újságcikk;botrányos;TARG;97;new;1,776583854;2;0,703152126;0;1;1
030718;OA;REC;1;74;repülõjegy;érvényes;TARG;98;old;1,902532971;2;1,452348015;1;1;1
030718;OA;REC;1;20;díszlet;császári;DISTANT;99;new;2,184792095;2;2,192400277;1;1;1
030718;OA;REC;1;99;zeneszerzõ;nagyszerû;TARG;100;None;;3;0,621624866;none;1;1
030718;OA;REC;1;31;helyezés;változatlan;CLOSE;101;new;2,327367686;3;1,586214768;1;1;1
030718;OA;REC;1;59;mûalkotás;korabeli;TARG;102;new;1,614862936;3;1,777753243;0;1;1
030718;OA;REC;1;27;párbeszéd;kötetlen;FOIL;103;new;1,693358181;3;1,806474808;1;1;1
030718;OA;REC;1;13;bölcsõde;alkalmas;DISTANT;104;new;2,012420716;3;0,732017066;1;1;1
030718;OA;REC;1;17;csomagolás;elõzetes;DISTANT;105;old;1,587587868;2;0,805680805;0;1;1
030718;OA;REC;1;60;rosszullét;fizikai;FOIL;106;new;1,609285012;3;0,503243189;1;1;1
030718;OA;REC;1;52;magazin;tudományos;TARG;107;new;1,680576073;3;0,973847048;0;1;1
030718;OA;REC;1;29;hangszer;tipikus;CLOSE;108;new;1,697400659;2;1,755265828;1;1;1
030718;OA;REC;1;56;mikrofon;vezetékes;TARG;109;old;1,901781266;3;1,25686503;1;1;1
030718;OA;REC;1;53;matrica;fizetõs;TARG;110;old;1,687883822;3;0,73002164;1;1;1
030718;OA;REC;1;18;diáklány;feltörekvõ;DISTANT;111;new;2,737429844;1;2,811848711;1;1;1
030718;OA;REC;1;99;államférfi;diszkrét;FOIL;112;new;1,566916738;3;1,359617324;1;1;1
030718;OA;REC;1;82;szõnyeg;használati;TARG;113;old;1,92037051;3;0,747922313;1;1;1
030718;OA;REC;1;90;tudomány;mérnöki;TARG;114;old;2,127317552;3;1,371845837;1;1;1
030718;OA;REC;1;23;étterem;egyházi;DISTANT;115;new;1,610381314;1;1,677799396;1;1;1
030718;OA;REC;1;22;egyenruha;méteres;DISTANT;116;None;;2;1,809984841;none;1;1
030718;OA;REC;1;83;gyûjtemény;sokszínû;FOIL;117;new;1,811884166;3;2,015996061;1;1;1
030718;OA;REC;1;14;csecsemõ;névtelen;DISTANT;118;new;1,938059075;1;0,811068081;1;1;1
030718;OA;REC;1;51;levéltár;régészeti;TARG;119;old;2,172987795;3;1,10782452;1;1;1
030718;OA;REC;1;53;végeredmény;lehetséges;FOIL;120;None;;3;3,971044868;none;1;1
030718;OA;REC;1;10;barlang;korlátlan;DISTANT;121;new;1,857465461;3;1,330737144;1;1;1
030718;OA;REC;1;41;királynõ;gyönyörû;CLOSE;122;None;;1;0,608819122;none;1;1
030718;OA;REC;1;12;rokonság;nagyszámú;FOIL;123;new;1,680551815;3;0,586663552;1;1;1
030718;OA;REC;1;103;forgatás;életveszélyes;FOIL;124;new;2,926877103;2;1,432204665;1;1;1
030718;OA;REC;1;75;sütemény;születésnapi;TARG;125;old;1,720762006;3;0,386679041;1;1;1
076057;OA;ENC_GYAK;3;1;színésznõ;tevékeny;TARG;1;None;;;;none;3;3
076057;OA;ENC_GYAK;3;3;sivatag;végtelen;TARG;2;None;;;;none;3;3
076057;OA;ENC_GYAK;3;4;retorika;ésszerû;FOIL;3;None;;;;none;3;3
076057;OA;ENC_GYAK;3;2;csokoládé;közönséges;TARG;4;None;;;;none;3;3
076057;OA;ENC_GYAK;3;5;hulladék;darabos;FOIL;5;None;;;;none;3;3
076057;OA;ENC_GYAK;3;6;karrier;termékeny;FOIL;6;None;;;;none;3;3
076057;OA;ENC_GYAK;3;3;sivatag;végtelen;TARG;1;None;;;;none;3;3
076057;OA;ENC_GYAK;3;4;retorika;ésszerû;FOIL;2;None;;;;none;3;3
076057;OA;ENC_GYAK;3;5;hulladék;darabos;FOIL;3;no-good;1,671965824;;;;3;3
076057;OA;ENC_GYAK;3;6;karrier;termékeny;FOIL;4;good;1,944240043;;;;3;3
076057;OA;ENC_GYAK;3;1;színésznõ;tevékeny;TARG;5;None;;;;none;3;3
076057;OA;ENC_GYAK;3;2;csokoládé;közönséges;TARG;6;None;;;;none;3;3
076057;OA;ENC_GYAK;3;6;karrier;termékeny;FOIL;1;good;1,577173773;;;;3;3
076057;OA;ENC_GYAK;3;4;retorika;ésszerû;FOIL;2;good;1,031508195;;;;3;3
076057;OA;ENC_GYAK;3;3;sivatag;végtelen;TARG;3;good;1,449766962;;;;3;3
076057;OA;ENC_GYAK;3;2;csokoládé;közönséges;TARG;4;good;1,105540168;;;;3;3
076057;OA;ENC_GYAK;3;5;hulladék;darabos;FOIL;5;good;1,644632286;;;;3;3
076057;OA;ENC_GYAK;3;1;színésznõ;tevékeny;TARG;6;good;1,607769471;;;;3;3
076057;OA;ENC;3;65;novella;tanulságos;TARG;1;good;1,571055007;;;;3;3
076057;OA;ENC;3;6;kézikönyv;technikai;FOIL;2;good;1,323339825;;;;3;3
076057;OA;ENC;3;4;állatkert;egzotikus;TARG;3;None;;;;none;3;3
076057;OA;ENC;3;84;tananyag;iskolai;TARG;4;good;1,094797649;;;;3;3
076057;OA;ENC;3;32;szállítás;idõigényes;FOIL;5;None;;;;none;3;3
076057;OA;ENC;3;73;rémálom;szomorú;TARG;6;good;1,653856776;;;;3;3
076057;OA;ENC;3;9;barátnõ;középkorú;TARG;7;good;1,494209969;;;;3;3
076057;OA;ENC;3;114;tiltakozás;egyhangú;FOIL;8;good;1,371610093;;;;3;3
076057;OA;ENC;3;24;irodaház;szemközti;FOIL;9;good;1,390631327;;;;3;3
076057;OA;ENC;3;56;mikrofon;vezetékes;TARG;10;no-good;1,635714761;;;;3;3
076057;OA;ENC;3;40;engedmény;felelõtlen;FOIL;11;None;;;;none;3;3
076057;OA;ENC;3;41;királynõ;szépséges;TARG;12;good;1,126298691;;;;3;3
076057;OA;ENC;3;77;õrmester;méltatlan;FOIL;13;good;1,429215259;;;;3;3
076057;OA;ENC;3;51;sorrend;szabályos;FOIL;14;good;1,249728957;;;;3;3
076057;OA;ENC;3;99;zeneszerzõ;nagyszerû;TARG;15;good;0,985505484;;;;3;3
076057;OA;ENC;3;90;mozdulat;harmonikus;FOIL;16;good;1,59616515;;;;3;3
076057;OA;ENC;3;20;díszlet;színpadi;TARG;17;good;1,209228284;;;;3;3
076057;OA;ENC;3;5;áruházlánc;veszteséges;TARG;18;good;1,461879781;;;;3;3
076057;OA;ENC;3;65;alapanyag;folyékony;FOIL;19;good;1,389150308;;;;3;3
076057;OA;ENC;3;37;képregény;izgalmas;TARG;20;good;1,253538802;;;;3;3
076057;OA;ENC;3;97;pontszám;egyenlõ;FOIL;21;good;1,25691137;;;;3;3
076057;OA;ENC;3;115;villany;infravörös;FOIL;22;good;0,889466914;;;;3;3
076057;OA;ENC;3;31;helyezés;végleges;TARG;23;good;1,069739755;;;;3;3
076057;OA;ENC;3;80;szerszám;trükkös;TARG;24;good;1,494156786;;;;3;3
076057;OA;ENC;3;103;forgatás;életveszélyes;FOIL;25;good;1,117132048;;;;3;3
076057;OA;ENC;3;95;végállomás;ideiglenes;TARG;26;no-good;1,467449929;;;;3;3
076057;OA;ENC;3;90;tudomány;mérnöki;TARG;27;good;1,003367592;;;;3;3
076057;OA;ENC;3;16;tinédzser;kíváncsi;FOIL;28;good;1,177721644;;;;3;3
076057;OA;ENC;3;57;hadjárat;szerencsétlen;FOIL;29;good;1,674953364;;;;3;3
076057;OA;ENC;3;77;szakadék;iszonyatos;TARG;30;good;1,905621278;;;;3;3
076057;OA;ENC;3;99;államférfi;diszkrét;FOIL;31;None;;;;none;3;3
076057;OA;ENC;3;46;ügyintézés;zökkenõmentes;FOIL;32;good;1,414816222;;;;3;3
076057;OA;ENC;3;14;csecsemõ;egészséges;TARG;33;good;1,073622687;;;;3;3
076057;OA;ENC;3;43;kolbász;tonnányi;TARG;34;no-good;1,597134872;;;;3;3
076057;OA;ENC;3;60;rosszullét;fizikai;FOIL;35;good;0,999294323;;;;3;3
076057;OA;ENC;3;22;egyenruha;rendõri;TARG;36;good;1,164398695;;;;3;3
076057;OA;ENC;3;45;kolostor;hajdani;TARG;37;good;1,384957924;;;;3;3
076057;OA;ENC;3;21;frontember;lendületes;FOIL;38;no-good;1,60352266;;;;3;3
076057;OA;ENC;3;25;szekrény;kaotikus;FOIL;39;good;1,509367553;;;;3;3
076057;OA;ENC;3;25;fejfájás;kellemetlen;TARG;40;good;1,29397945;;;;3;3
076057;OA;ENC;3;80;népcsoport;kétnyelvû;FOIL;41;good;1,547995648;;;;3;3
076057;OA;ENC;3;76;meglátás;egyoldalú;FOIL;42;None;;;;none;3;3
076057;OA;ENC;3;42;kirándulás;hétvégi;TARG;43;good;1,162812866;;;;3;3
076057;OA;ENC;3;31;nagykövet;befolyásos;FOIL;44;good;1,072751865;;;;3;3
076057;OA;ENC;3;96;ventilátor;masszív;TARG;45;no-good;1,256339426;;;;3;3
076057;OA;ENC;3;41;operatõr;hivatásos;FOIL;46;good;1,274323449;;;;3;3
076057;OA;ENC;3;105;szörnyeteg;képzeletbeli;FOIL;47;good;1,371134562;;;;3;3
076057;OA;ENC;3;49;legénység;katonai;TARG;48;no-good;1,132599708;;;;3;3
076057;OA;ENC;3;74;repülõjegy;érvényes;TARG;49;good;1,221030717;;;;3;3
076057;OA;ENC;3;116;hazugság;kisebbik;FOIL;50;good;1,370055677;;;;3;3
076057;OA;ENC;3;110;hátrány;mentális;FOIL;51;good;1,491864348;;;;3;3
076057;OA;ENC;3;68;osztályzat;közepes;TARG;52;good;1,289022608;;;;3;3
076057;OA;ENC;3;15;csengõhang;többféle;TARG;53;good;1,271540863;;;;3;3
076057;OA;ENC;3;98;élettárs;passzív;FOIL;54;no-good;1,260355469;;;;3;3
076057;OA;ENC;3;117;megjegyzés;rosszindulatú;FOIL;55;good;1,266854287;;;;3;3
076057;OA;ENC;3;79;szemüveg;kényelmes;TARG;56;good;1,267527308;;;;3;3
076057;OA;ENC;3;93;útlezárás;helyszíni;TARG;57;good;0,907245672;;;;3;3
076057;OA;ENC;3;66;csarnok;ünnepélyes;FOIL;58;no-good;1,431496812;;;;3;3
076057;OA;ENC;3;69;célpont;potenciális;FOIL;59;good;1,221802949;;;;3;3
076057;OA;ENC;3;67;oroszlán;nyugodt;TARG;60;good;1,391223486;;;;3;3
076057;OA;ENC;3;100;zöldség;rendszeres;TARG;61;good;1,123275073;;;;3;3
076057;OA;ENC;3;36;berendezés;egyszerû;FOIL;62;good;1,576459388;;;;3;3
076057;OA;ENC;3;61;mûemlék;természeti;TARG;63;good;1,764206056;;;;3;3
076057;OA;ENC;3;62;mûvészet;vizuális;TARG;64;good;1,056306708;;;;3;3
076057;OA;ENC;3;75;jutalom;kívánatos;FOIL;65;good;1,564319823;;;;3;3
076057;OA;ENC;3;106;munkagép;funkcionális;FOIL;66;no-good;1,832855418;;;;3;3
076057;OA;ENC;3;26;folyadék;elegendõ;TARG;67;good;1,136234455;;;;3;3
076057;OA;ENC;3;83;találmány;forradalmi;TARG;68;good;1,325522166;;;;3;3
076057;OA;ENC;3;72;asszisztens;tárgyalási;FOIL;69;good;1,817902166;;;;3;3
076057;OA;ENC;3;81;színdarab;humoros;TARG;70;good;1,008269696;;;;3;3
076057;OA;ENC;3;30;háziorvos;körzeti;TARG;71;good;0,871594232;;;;3;3
076057;OA;ENC;3;48;nézõpont;kézenfekvõ;FOIL;72;good;1,501950952;;;;3;3
076057;OA;ENC;3;35;fenyegetés;írásbeli;FOIL;73;good;1,253047409;;;;3;3
076057;OA;ENC;3;72;professzor;közgazdasági;TARG;74;good;1,582756362;;;;3;3
076057;OA;ENC;3;7;testmozgás;speciális;FOIL;75;good;1,217897625;;;;3;3
076057;OA;ENC;3;3;alkohol;legális;TARG;76;no-good;1,406656312;;;;3;3
076057;OA;ENC;3;70;kritika;érthetetlen;FOIL;77;good;1,803024799;;;;3;3
076057;OA;ENC;3;69;ösztöndíj;tanulmányi;TARG;78;good;0,96171619;;;;3;3
076057;OA;ENC;3;29;nyereség;pillanatnyi;FOIL;79;good;1,021990425;;;;3;3
076057;OA;ENC;3;119;felajánlás;tömeges;FOIL;80;good;1,519888634;;;;3;3
076057;OA;ENC;3;59;mûalkotás;korabeli;TARG;81;good;1,390089863;;;;3;3
076057;OA;ENC;3;92;újságcikk;botrányos;TARG;82;good;1,013217207;;;;3;3
076057;OA;ENC;3;58;közvetítés;globális;FOIL;83;good;1,632948658;;;;3;3
076057;OA;ENC;3;47;koponya;parányi;TARG;84;no-good;1,740065013;;;;3;3
076057;OA;ENC;3;64;napsütés;felhõtlen;TARG;85;good;1,108057153;;;;3;3
076057;OA;ENC;3;13;táplálék;elégséges;FOIL;86;good;1,193346051;;;;3;3
076057;OA;ENC;3;79;szivárgás;fokozatos;FOIL;87;good;1,648455816;;;;3;3
076057;OA;ENC;3;51;levéltár;régészeti;TARG;88;good;1,624073119;;;;3;3
076057;OA;ENC;3;10;barlang;lakatlan;TARG;89;good;1,370349579;;;;3;3
076057;OA;ENC;3;14;focista;rugalmas;FOIL;90;good;1,499932822;;;;3;3
076057;OA;ENC;3;40;kesztyû;férfias;TARG;91;good;1,017360763;;;;3;3
076057;OA;ENC;3;55;pályafutás;dicséretes;FOIL;92;good;1,358423676;;;;3;3
076057;OA;ENC;3;15;küldemény;dobozos;FOIL;93;good;1,436372169;;;;3;3
076057;OA;ENC;3;18;diáklány;ártatlan;TARG;94;good;0,97207337;;;;3;3
076057;OA;ENC;3;91;fertõzés;hosszútávú;FOIL;95;no-good;1,75536224;;;;3;3
076057;OA;ENC;3;53;végeredmény;lehetséges;FOIL;96;good;1,308430114;;;;3;3
076057;OA;ENC;3;97;világítás;hangulatos;TARG;97;good;1,213450836;;;;3;3
076057;OA;ENC;3;84;útmutatás;szakszerû;FOIL;98;good;1,166041437;;;;3;3
076057;OA;ENC;3;75;sütemény;születésnapi;TARG;99;good;1,125854883;;;;3;3
076057;OA;ENC;3;19;diktátor;kegyetlen;TARG;100;good;1,417147536;;;;3;3
076057;OA;ENC;3;109;mozzanat;színészi;FOIL;1;None;;;;none;3;3
076057;OA;ENC;3;58;mutatvány;szánalmas;TARG;2;good;1,252347953;;;;3;3
076057;OA;ENC;3;32;horgász;balatoni;TARG;3;good;1,03429047;;;;3;3
076057;OA;ENC;3;38;korosztály;szerencsés;FOIL;4;good;1,681571609;;;;3;3
076057;OA;ENC;3;37;korszak;bizonytalan;FOIL;5;good;1,546120272;;;;3;3
076057;OA;ENC;3;88;tévémûsor;közéleti;TARG;6;no-good;1,443479318;;;;3;3
076057;OA;ENC;3;94;protokoll;sebészeti;FOIL;7;good;1,768560476;;;;3;3
076057;OA;ENC;3;74;zûrzavar;érzelmi;FOIL;8;good;1,234284623;;;;3;3
076057;OA;ENC;3;50;lépcsõház;emeletes;TARG;9;None;;;;none;3;3
076057;OA;ENC;3;121;családfõ;becsületes;FOIL;10;good;1,245192909;;;;3;3
076057;OA;ENC;3;113;védõoltás;hatékony;FOIL;11;good;1,516064794;;;;3;3
076057;OA;ENC;3;63;nagymama;kedvenc;TARG;12;good;1,036642;;;;3;3
076057;OA;ENC;3;82;értékrend;szubjektív;FOIL;13;good;1,650315642;;;;3;3
076057;OA;ENC;3;60;mûanyag;felesleges;TARG;14;good;1,343372145;;;;3;3
076057;OA;ENC;3;76;szabadidõ;kellemes;TARG;15;good;1,027591363;;;;3;3
076057;OA;ENC;3;28;követelés;eredményes;FOIL;16;good;1,84523477;;;;3;3
076057;OA;ENC;3;27;párbeszéd;kötetlen;FOIL;17;good;1,051922121;;;;3;3
076057;OA;ENC;3;54;mellény;sportos;TARG;18;good;0,898759203;;;;3;3
076057;OA;ENC;3;59;sorsolás;helytelen;FOIL;19;no-good;1,628535458;;;;3;3
076057;OA;ENC;3;38;kerékpár;elektromos;TARG;20;no-good;1,482534116;;;;3;3
076057;OA;ENC;3;96;adottság;pozitív;FOIL;21;good;1,097811314;;;;3;3
076057;OA;ENC;3;16;csillagász;figyelmes;TARG;22;no-good;1,790095274;;;;3;3
076057;OA;ENC;3;44;kollégium;fõiskolai;TARG;23;good;1,17043691;;;;3;3
076057;OA;ENC;3;56;észrevétel;lényegtelen;FOIL;24;good;1,728067267;;;;3;3
076057;OA;ENC;3;67;védekezés;célszerû;FOIL;25;good;1,017297318;;;;3;3
076057;OA;ENC;3;86;távirat;udvarias;TARG;26;good;1,091927981;;;;3;3
076057;OA;ENC;3;20;földrengés;sorozatos;FOIL;27;good;1,528946424;;;;3;3
076057;OA;ENC;3;86;választék;tetszetõs;FOIL;28;None;;;;none;3;3
076057;OA;ENC;3;2;albérlet;szegényes;TARG;29;good;1,489241309;;;;3;3
076057;OA;ENC;3;89;ellenõr;közömbös;FOIL;30;good;0,997953569;;;;3;3
076057;OA;ENC;3;93;testrész;elõnytelen;FOIL;31;good;1,172531236;;;;3;3
076057;OA;ENC;3;7;aszfalt;hibátlan;TARG;32;good;1,201674217;;;;3;3
076057;OA;ENC;3;55;menetrend;szokásos;TARG;33;good;1,182155371;;;;3;3
076057;OA;ENC;3;47;császár;tudatos;FOIL;34;no-good;1,588955991;;;;3;3
076057;OA;ENC;3;8;baktérium;növényi;TARG;35;good;1,535298135;;;;3;3
076057;OA;ENC;3;63;titkárság;egyszemélyes;FOIL;36;good;1,039567649;;;;3;3
076057;OA;ENC;3;3;fõhadnagy;kíméletlen;FOIL;37;good;1,859228253;;;;3;3
076057;OA;ENC;3;39;készpénz;csekély;TARG;38;good;1,626777954;;;;3;3
076057;OA;ENC;3;71;vezetõség;tartományi;FOIL;39;good;1,281183347;;;;3;3
076057;OA;ENC;3;73;felsorolás;tartalmi;FOIL;40;no-good;1,521731044;;;;3;3
076057;OA;ENC;3;28;gorilla;érzékeny;TARG;41;good;0,885423813;;;;3;3
076057;OA;ENC;3;34;kánikula;tavaszi;TARG;42;good;1,825206805;;;;3;3
076057;OA;ENC;3;102;vetítés;farsangi;FOIL;43;good;0,561729128;;;;3;3
076057;OA;ENC;3;4;hercegnõ;türelmes;FOIL;44;good;1,536623339;;;;3;3
076057;OA;ENC;3;36;kastély;csodálatos;TARG;45;good;0,797822573;;;;3;3
076057;OA;ENC;3;21;díszterem;patinás;TARG;46;good;1,780639395;;;;3;3
076057;OA;ENC;3;95;gyûlölet;mélységes;FOIL;47;good;1,034323126;;;;3;3
076057;OA;ENC;3;45;tehetség;példaértékû;FOIL;48;good;1,246338039;;;;3;3
076057;OA;ENC;3;33;iránytû;hasznos;TARG;49;good;1,152150587;;;;3;3
076057;OA;ENC;3;5;díszvendég;nagyvonalú;FOIL;50;no-good;1,492833138;;;;3;3
076057;OA;ENC;3;17;csomagolás;ízléses;TARG;51;good;0,988163667;;;;3;3
076057;OA;ENC;3;9;bábszínház;virtuális;FOIL;52;no-good;1,525752685;;;;3;3
076057;OA;ENC;3;87;telefonszám;otthoni;TARG;53;good;1,122072095;;;;3;3
076057;OA;ENC;3;53;matrica;fizetõs;TARG;54;good;1,286256506;;;;3;3
076057;OA;ENC;3;17;borvidék;csapadékos;FOIL;55;good;1,514089273;;;;3;3
076057;OA;ENC;3;22;bankrablás;tavalyi;FOIL;56;good;1,576137806;;;;3;3
076057;OA;ENC;3;98;zarándok;keresztény;TARG;57;no-good;1,462288134;;;;3;3
076057;OA;ENC;3;61;üzemanyag;mesterséges;FOIL;58;good;1,460975681;;;;3;3
076057;OA;ENC;3;71;pisztoly;törvénytelen;TARG;59;no-good;1,759665032;;;;3;3
076057;OA;ENC;3;11;benzinkút;hajnali;TARG;60;good;1,047500213;;;;3;3
076057;OA;ENC;3;87;alkatrész;mágneses;FOIL;61;good;1,145261144;;;;3;3
076057;OA;ENC;3;89;törmelék;építkezési;TARG;62;good;0,863762124;;;;3;3
076057;OA;ENC;3;49;havazás;folyamatos;FOIL;63;good;1,192697289;;;;3;3
076057;OA;ENC;3;26;vallomás;következetes;FOIL;64;None;;;;none;3;3
076057;OA;ENC;3;24;fejedelem;történelmi;TARG;65;good;1,072460451;;;;3;3
076057;OA;ENC;3;1;merénylõ;erõszakos;FOIL;66;good;0,873759157;;;;3;3
076057;OA;ENC;3;46;kommentár;terjedelmes;TARG;67;no-good;1,44968921;;;;3;3
076057;OA;ENC;3;6;ásványvíz;minõségi;TARG;68;good;0,980692017;;;;3;3
076057;OA;ENC;3;118;kiképzés;lélektani;FOIL;69;good;0,984860765;;;;3;3
076057;OA;ENC;3;85;tanfolyam;gyakorlati;TARG;70;good;1,394603518;;;;3;3
076057;OA;ENC;3;12;boríték;érvénytelen;TARG;71;no-good;1,382013302;;;;3;3
076057;OA;ENC;3;92;házastárs;eszméletlen;FOIL;72;good;0,873633199;;;;3;3
076057;OA;ENC;3;107;üdvözlet;kölcsönös;FOIL;73;good;1,216457659;;;;3;3
076057;OA;ENC;3;48;költészet;mágikus;TARG;74;no-good;1,697005369;;;;3;3
076057;OA;ENC;3;82;szõnyeg;használati;TARG;75;good;1,395589724;;;;3;3
076057;OA;ENC;3;125;csemege;temérdek;FOIL;76;good;1,562594663;;;;3;3
076057;OA;ENC;3;64;hetilap;közérdekû;FOIL;77;good;1,030192632;;;;3;3
076057;OA;ENC;3;78;szélvihar;hirtelen;TARG;78;good;1,378599992;;;;3;3
076057;OA;ENC;3;57;monitor;kijelzõs;TARG;79;good;1,842838145;;;;3;3
076057;OA;ENC;3;83;gyûjtemény;sokszínû;FOIL;80;good;1,276333181;;;;3;3
076057;OA;ENC;3;44;veszekedés;hétköznapi;FOIL;81;good;1,34967254;;;;3;3
076057;OA;ENC;3;23;étterem;elegáns;TARG;82;good;1,899894382;;;;3;3
076057;OA;ENC;3;62;gyulladás;fájdalmas;FOIL;83;good;1,389880243;;;;3;3
076057;OA;ENC;3;27;gázvezeték;felszíni;TARG;84;good;1,796147174;;;;3;3
076057;OA;ENC;3;91;tûzijáték;nagyszabású;TARG;85;good;1,043088568;;;;3;3
076057;OA;ENC;3;101;diskurzus;társadalmi;FOIL;86;good;1,599335563;;;;3;3
076057;OA;ENC;3;70;pénztárca;ismeretlen;TARG;87;good;1,36203883;;;;3;3
076057;OA;ENC;3;35;kapitány;rutinos;TARG;88;good;1,182316784;;;;3;3
076057;OA;ENC;3;68;vetélytárs;egyedüli;FOIL;89;good;1,341264135;;;;3;3
076057;OA;ENC;3;94;vacsora;zártkörû;TARG;90;good;0,855899537;;;;3;3
076057;OA;ENC;3;29;hangszer;autentikus;TARG;91;no-good;1,680421503;;;;3;3
076057;OA;ENC;3;12;rokonság;nagyszámú;FOIL;92;good;1,224046248;;;;3;3
076057;OA;ENC;3;100;zaklatás;pszichés;FOIL;93;good;1,320700302;;;;3;3
076057;OA;ENC;3;66;olimpikon;legendás;TARG;94;good;1,895956713;;;;3;3
076057;OA;ENC;3;43;kitüntetés;jelképes;FOIL;95;good;1,098816491;;;;3;3
076057;OA;ENC;3;11;laktanya;községi;FOIL;96;good;1,916304083;;;;3;3
076057;OA;ENC;3;1;akadály;lehetetlen;TARG;97;good;0,955687616;;;;3;3
076057;OA;ENC;3;13;bölcsõde;kertvárosi;TARG;98;good;1,111797021;;;;3;3
076057;OA;ENC;3;111;hirdetés;releváns;FOIL;99;no-good;1,671917618;;;;3;3
076057;OA;ENC;3;52;magazin;tudományos;TARG;100;good;1,378907268;;;;3;3
076057;OA;REC_GYAK;3;3;sivatag;délelõtti;DISTANT;1;None;;None;;none;3;3
076057;OA;REC_GYAK;3;2;csokoládé;szokványos;CLOSE;2;None;;3;0,259930011;none;3;3
076057;OA;REC_GYAK;3;5;hadmûvelet;rivális;FOIL;3;None;;3;4,629512334;none;3;3
076057;OA;REC_GYAK;3;1;színésznõ;tevékeny;TARG;4;None;;3;3,430234431;none;3;3
076057;OA;REC_GYAK;3;6;nézõtér;arányos;FOIL;5;None;;2;0,444468012;none;3;3
076057;OA;REC_GYAK;3;4;taktika;hátrányos;FOIL;6;None;;1;0,274519695;none;3;3
076057;OA;REC_GYAK;3;2;csokoládé;szokványos;CLOSE;1;None;;1;3,827459434;none;3;3
076057;OA;REC_GYAK;3;4;taktika;hátrányos;FOIL;2;None;;1;2,321709833;none;3;3
076057;OA;REC_GYAK;3;6;nézõtér;arányos;FOIL;3;old;1,177096208;1;2,472991776;0;3;3
076057;OA;REC_GYAK;3;1;színésznõ;tevékeny;TARG;4;new;1,810262882;1;1,294763811;0;3;3
076057;OA;REC_GYAK;3;5;hadmûvelet;rivális;FOIL;5;new;1,518256466;1;1,811737681;1;3;3
076057;OA;REC_GYAK;3;3;sivatag;délelõtti;DISTANT;6;None;;3;3,33200108;none;3;3
076057;OA;REC_GYAK;3;3;sivatag;délelõtti;DISTANT;1;new;1,732002448;1;0,545312896;1;3;3
076057;OA;REC_GYAK;3;4;taktika;hátrányos;FOIL;2;old;1,854076099;3;3,253786053;0;3;3
076057;OA;REC_GYAK;3;2;csokoládé;szokványos;CLOSE;3;None;;2;3,912799648;none;3;3
076057;OA;REC_GYAK;3;6;nézõtér;arányos;FOIL;4;None;;None;;none;3;3
076057;OA;REC_GYAK;3;1;színésznõ;tevékeny;TARG;5;None;;1;1,81290396;none;3;3
076057;OA;REC_GYAK;3;5;hadmûvelet;rivális;FOIL;6;new;1,795898368;1;2,077411072;1;3;3
076057;OA;REC;3;25;fejfájás;kellemetlen;TARG;1;old;1,567911029;3;2,014157073;1;3;3
076057;OA;REC;3;104;pszichiáter;hûséges;FOIL;2;new;2,744104382;1;1,551509725;1;3;3
076057;OA;REC;3;85;bûntett;embertelen;FOIL;3;new;1,803831242;1;1,159378096;1;3;3
076057;OA;REC;3;93;útlezárás;közlekedési;CLOSE;4;old;2,856864905;3;0,819236078;0;3;3
076057;OA;REC;3;79;szemüveg;ideális;CLOSE;5;new;1,830221182;1;1,095781989;1;3;3
076057;OA;REC;3;32;horgász;balatoni;TARG;6;old;2,417479693;3;2,518421611;1;3;3
076057;OA;REC;3;8;baktérium;növényi;TARG;7;old;1,843493438;3;2,676265195;1;3;3
076057;OA;REC;3;85;tanfolyam;elméleti;CLOSE;8;old;1,575374282;1;1,406349348;0;3;3
076057;OA;REC;3;31;helyezés;végleges;TARG;9;new;2,308984019;1;1,623296533;0;3;3
076057;OA;REC;3;75;sütemény;centiméteres;DISTANT;10;new;1,601660657;1;1,5965847;1;3;3
076057;OA;REC;3;17;csomagolás;ízléses;TARG;11;old;2,207416664;1;0,814138039;1;3;3
076057;OA;REC;3;70;pénztárca;szögletes;DISTANT;12;new;1,26187723;1;0,605078943;1;3;3
076057;OA;REC;3;64;napsütés;kártékony;DISTANT;13;old;2,434514831;1;1,32939328;0;3;3
076057;OA;REC;3;34;kánikula;tavaszi;TARG;14;new;1,785464058;1;0,433010176;0;3;3
076057;OA;REC;3;36;kastély;csodálatos;TARG;15;old;1,502020306;1;0,638608999;1;3;3
076057;OA;REC;3;68;osztályzat;érdemleges;DISTANT;16;None;;3;1,244602305;none;3;3
076057;OA;REC;3;56;mikrofon;parádés;DISTANT;17;old;1,887761348;3;1,022431745;0;3;3
076057;OA;REC;3;41;királynõ;szépséges;TARG;18;old;1,552329852;3;1,812959942;1;3;3
076057;OA;REC;3;47;koponya;parányi;TARG;19;new;2,726471797;3;2,526480754;0;3;3
076057;OA;REC;3;50;leépítés;túlzott;FOIL;20;new;2,171843598;1;1,104554584;1;3;3
076057;OA;REC;3;42;kirándulás;hétvégi;TARG;21;old;1,486491379;3;1,411323917;1;3;3
076057;OA;REC;3;10;barlang;lakatlan;TARG;22;old;1,34208053;3;0,864683329;1;3;3
076057;OA;REC;3;89;törmelék;karbantartási;CLOSE;23;old;2,057910575;3;0,860792;0;3;3
076057;OA;REC;3;44;kollégium;fõiskolai;TARG;24;old;1,66893381;3;0,552837106;1;3;3
076057;OA;REC;3;1;akadály;lehetetlen;TARG;25;new;1,711384501;1;0,628407634;0;3;3
076057;OA;REC;3;84;tananyag;egyetemi;CLOSE;26;old;1,341079396;2;1,914685599;0;3;3
076057;OA;REC;3;8;publicista;hiteles;FOIL;27;new;1,719045555;1;1,122918036;1;3;3
076057;OA;REC;3;28;gorilla;érzékeny;TARG;28;old;1,823763107;3;1,435843456;1;3;3
076057;OA;REC;3;11;benzinkút;hajnali;TARG;29;old;1,368086998;3;0,668880627;1;3;3
076057;OA;REC;3;18;olvasmány;gyermekkori;FOIL;30;new;2,681726802;1;1,815203862;1;3;3
076057;OA;REC;3;88;tévémûsor;irodalmi;CLOSE;31;new;2,400943411;1;0,721969027;1;3;3
076057;OA;REC;3;27;gázvezeték;felszíni;TARG;32;old;1,451319202;3;0,8377569;1;3;3
076057;OA;REC;3;7;aszfalt;hibátlan;TARG;33;old;1,268413991;3;0,705219394;1;3;3
076057;OA;REC;3;83;találmány;újszerû;CLOSE;34;new;2,630676747;1;0,87297635;1;3;3
076057;OA;REC;3;69;ösztöndíj;szabványos;DISTANT;35;new;2,087562987;1;0,595134159;1;3;3
076057;OA;REC;3;26;folyadék;elegendõ;TARG;36;old;1,490055838;3;0,604151829;1;3;3
076057;OA;REC;3;65;novella;igazságügyi;DISTANT;37;None;;1;0,631571827;none;3;3
076057;OA;REC;3;39;készpénz;csekély;TARG;38;old;2,255979901;2;1,45345427;1;3;3
076057;OA;REC;3;52;magazin;elõfizetéses;DISTANT;39;old;1,149285584;3;0,451955834;0;3;3
076057;OA;REC;3;63;nagymama;pontatlan;DISTANT;40;new;1,921217384;1;1,700229897;1;3;3
076057;OA;REC;3;97;világítás;élvezetes;CLOSE;41;new;1,957516031;2;1,073949556;1;3;3
076057;OA;REC;3;67;oroszlán;nagysikerû;DISTANT;42;new;2,238182483;1;1,721863907;1;3;3
076057;OA;REC;3;19;mellékutca;rendezetlen;FOIL;43;None;;1;0,656900609;none;3;3
076057;OA;REC;3;72;professzor;barátságos;DISTANT;44;new;2,348709971;1;1,827734987;1;3;3
076057;OA;REC;3;54;tartozás;nagymértékû;FOIL;45;new;2,361386025;1;0,969867704;1;3;3
076057;OA;REC;3;29;hangszer;autentikus;TARG;46;old;1,62758844;2;1,592142576;1;3;3
076057;OA;REC;3;98;zarándok;vallásos;CLOSE;47;new;1,802095197;2;1,538778001;1;3;3
076057;OA;REC;3;78;szélvihar;váratlan;CLOSE;48;old;1,910398046;1;1,05544926;0;3;3
076057;OA;REC;3;30;háziorvos;körzeti;TARG;49;old;1,771845029;3;1,074672649;1;3;3
076057;OA;REC;3;21;díszterem;patinás;TARG;50;old;1,45183734;3;0,618690508;1;3;3
076057;OA;REC;3;123;lázadás;széleskörû;FOIL;51;new;2,317802954;2;1,70757279;1;3;3
076057;OA;REC;3;90;tudomány;építészeti;CLOSE;52;new;2,099889779;2;2,115817419;1;3;3
076057;OA;REC;3;91;tûzijáték;nevezetes;CLOSE;53;new;2,252251541;2;1,287383287;1;3;3
076057;OA;REC;3;18;diáklány;ártatlan;TARG;54;old;2,257091132;2;6,527972659;1;3;3
076057;OA;REC;3;13;bölcsõde;kertvárosi;TARG;55;old;1,709670848;3;1,137504611;1;3;3
076057;OA;REC;3;61;mûemlék;gyõzelmi;DISTANT;56;new;2,871512748;1;0,943300489;1;3;3
076057;OA;REC;3;99;zeneszerzõ;fantasztikus;CLOSE;57;old;2,877771468;2;1,88522228;0;3;3
076057;OA;REC;3;20;díszlet;színpadi;TARG;58;old;1,627457194;3;0,469719042;1;3;3
076057;OA;REC;3;46;kommentár;terjedelmes;TARG;59;new;2,060261483;1;0,697935282;0;3;3
076057;OA;REC;3;54;mellény;szállodai;DISTANT;60;new;3,728378275;1;0,833115109;1;3;3
076057;OA;REC;3;55;menetrend;hazafias;DISTANT;61;new;2,649396303;1;2,493270725;1;3;3
076057;OA;REC;3;38;kerékpár;elektromos;TARG;62;old;2,170960958;3;0,685550953;1;3;3
076057;OA;REC;3;120;áramlat;kulturális;FOIL;63;new;2,045701966;1;0,550128539;1;3;3
076057;OA;REC;3;49;legénység;katonai;TARG;64;new;1,823277313;1;0,614871644;0;3;3
076057;OA;REC;3;3;alkohol;legális;TARG;65;old;1,584713223;3;1,929720025;1;3;3
076057;OA;REC;3;81;mellékhatás;közvetett;FOIL;66;new;2,629346256;1;0,613727757;1;3;3
076057;OA;REC;3;12;boríték;érvénytelen;TARG;67;old;2,245293053;3;0,726137464;1;3;3
076057;OA;REC;3;80;szerszám;láthatatlan;CLOSE;68;old;2,058377398;2;1,712668341;0;3;3
076057;OA;REC;3;6;ásványvíz;minõségi;TARG;69;old;1,733522654;3;1,329484405;1;3;3
076057;OA;REC;3;34;korlátozás;lokális;FOIL;70;new;2,308156738;2;2,490296869;1;3;3
076057;OA;REC;3;92;újságcikk;döbbenetes;CLOSE;71;old;1,911780476;3;1,04895293;0;3;3
076057;OA;REC;3;124;kertész;szakképzett;FOIL;72;old;1,485586035;3;0,54985081;0;3;3
076057;OA;REC;3;23;étterem;elegáns;TARG;73;old;1,371250879;3;0,546122449;1;3;3
076057;OA;REC;3;59;mûalkotás;nyereséges;DISTANT;74;new;2,639050008;1;0,852042419;1;3;3
076057;OA;REC;3;9;barátnõ;középkorú;TARG;75;new;2,413158862;2;0,511514129;0;3;3
076057;OA;REC;3;2;albérlet;szegényes;TARG;76;old;1,87076042;3;1,009743562;1;3;3
