itemno,wordA,wordB,enc_gyak.thisRepN,enc_gyak.thisTrialN,enc_gyak.thisN,enc_gyak.thisIndex,rec_gyak.thisRepN,rec_gyak.thisTrialN,rec_gyak.thisN,rec_gyak.thisIndex,repeat_task.thisRepN,repeat_task.thisTrialN,repeat_task.thisN,repeat_task.thisIndex,enc_loop.thisRepN,enc_loop.thisTrialN,enc_loop.thisN,enc_loop.thisIndex,test_loop.thisRepN,test_loop.thisTrialN,test_loop.thisN,test_loop.thisIndex,int.started,int.stopped,int_key.keys,int_key.rt,int_key.started,int_key.stopped,prepare_gyak_text.started,prepare_gyak_text.stopped,fix.started,fix.stopped,word1.started,word1.stopped,word2.started,word2.stopped,gykrec_inst.started,gykrec_inst.stopped,gyakrec_inst.keys,gyakrec_inst.rt,gyakrec_inst.started,gyakrec_inst.stopped,cueword,cueword1.started,cueword1.stopped,cue_resp.keys,cue_resp.rt,cue_resp.started,cue_resp.stopped,cue_cont_text.started,cue_cont_text.stopped,cue_space.started,cue_space.stopped,test_ansbox.text,test_ansbox.started,test_ansbox.stopped,ans_text.started,ans_text.stopped,ans_continue.keys,ans_continue.rt,ans_continue.started,ans_continue.stopped,feedback_text.started,feedback_text.stopped,feedback_cont.keys,feedback_cont.rt,feedback_cont.started,feedback_cont.stopped,main_prep.started,main_prep.stopped,main_prep_resp.keys,main_prep_resp.rt,main_prep_resp.started,main_prep_resp.stopped,preparation.started,preparation.stopped,break_text.started,break_text.stopped,key_resp.keys,key_resp.rt,key_resp.started,key_resp.stopped,test_instruction.started,test_instruction.stopped,test_i_key.keys,test_i_key.rt,test_i_key.started,test_i_key.stopped,rep_routine.keys,rep_routine.rt,rep_routine.started,rep_routine.stopped,encrep_textbox.started,encrep_textbox.stopped,Résztvevő kódja,date,expName,psychopyVersion,frameRate,
,,,,,,,,,,,,,,,,,,,,,,,106.38943992531858,None,4,37.98030544677749,106.38943992531858,None,,,,,,,,,,,,,,,,,,,,,,,,,,,,,,,,,,,,,,,,,,,,,,,,,,,,,,,,,,,,,,,,,,,006150,2022_Apr_22_1124,palt,2021.1.2,52.72933901657055,
1,sapka,beton,0,0,0,0,,,,,,,,,,,,,,,,,,,,,,,144.3974604990799,None,147.44437878741883,None,148.41741878679022,None,148.41741878679022,None,,,,,,,,,,,,,,,,,,,,,,,,,,,,,,,,,,,,,,,,,,,,,,,,,,,,,,,,,,,006150,2022_Apr_22_1124,palt,2021.1.2,52.72933901657055,
4,kard,harcsa,0,1,1,3,,,,,,,,,,,,,,,,,,,,,,,,,154.40816506789997,None,155.42605888750404,None,155.42605888750404,None,,,,,,,,,,,,,,,,,,,,,,,,,,,,,,,,,,,,,,,,,,,,,,,,,,,,,,,,,,,006150,2022_Apr_22_1124,palt,2021.1.2,52.72933901657055,
2,lepke,szintetizátor,0,2,2,1,,,,,,,,,,,,,,,,,,,,,,,,,161.40658017341048,None,162.4181309940759,None,162.4181309940759,None,,,,,,,,,,,,,,,,,,,,,,,,,,,,,,,,,,,,,,,,,,,,,,,,,,,,,,,,,,,006150,2022_Apr_22_1124,palt,2021.1.2,52.72933901657055,
3,majoránna,szikla,0,3,3,2,,,,,,,,,,,,,,,,,,,,,,,,,168.40964919608086,None,169.42676456365734,None,169.42676456365734,None,,,,,,,,,,,,,,,,,,,,,,,,,,,,,,,,,,,,,,,,,,,,,,,,,,,,,,,,,,,006150,2022_Apr_22_1124,palt,2021.1.2,52.72933901657055,
,,,,,,,,,,,,,,,,,,,,,,,,,,,,,,,,,,,,,175.40647629695013,None,4,11.356782888062298,175.40647629695013,None,,,,,,,,,,,,,,,,,,,,,,,,,,,,,,,,,,,,,,,,,,,,,,,,,,,,,006150,2022_Apr_22_1124,palt,2021.1.2,52.72933901657055,
1,sapka,beton,,,,,0,0,0,0,,,,,,,,,,,,,,,,,,,,,186.81020577508025,None,,,,,,,,,,,sapka,187.82886031921953,None,4,5.372597000095993,187.82886031921953,None,187.82886031921953,None,187.82886031921953,None, beton,193.25809801463038,None,193.25809801463038,None,down,2.564077196875587,193.25809801463038,None,195.8821928272955,None,4,2.314907898195088,195.8821928272955,None,,,,,,,,,,,,,,,,,,,,,,,,,,,006150,2022_Apr_22_1124,palt,2021.1.2,52.72933901657055,
3,majoránna,szikla,,,,,0,1,1,2,,,,,,,,,,,,,,,,,,,,,198.23260317067616,None,,,,,,,,,,,majoránna,199.24507270753384,None,4,3.997045739321038,199.24507270753384,None,199.24507270753384,None,199.24507270753384,None, szikla,203.2696973523125,None,203.2696973523125,None,down,4.312255625845864,203.2696973523125,None,207.6159221562557,None,4,4.304349191952497,207.6159221562557,None,,,,,,,,,,,,,,,,,,,,,,,,,,,006150,2022_Apr_22_1124,palt,2021.1.2,52.72933901657055,
4,kard,harcsa,,,,,0,2,2,3,,,,,,,,,,,,,,,,,,,,,211.95521491253749,None,,,,,,,,,,,harcsa,212.97293892200105,None,4,14.481024185195565,212.97293892200105,None,212.97293892200105,None,212.97293892200105,None, kalapács,227.48684127046727,None,227.48684127046727,None,down,4.607102603884414,227.48684127046727,None,232.1233471503947,None,4,19.22668625181541,232.1233471503947,None,,,,,,,,,,,,,,,,,,,,,,,,,,,006150,2022_Apr_22_1124,palt,2021.1.2,52.72933901657055,
2,lepke,szintetizátor,,,,,0,3,3,1,,,,,,,,,,,,,,,,,,,,,251.37815377209336,None,,,,,,,,,,,szintetizátor,252.39271390181966,None,4,7.713924056850374,252.39271390181966,None,252.39271390181966,None,252.39271390181966,None, lepke,260.1369198311586,None,260.1369198311586,None,down,2.7407916884403676,260.1369198311586,None,262.93482992239296,None,4,1.5057701230980456,262.93482992239296,None,,,,,,,,,,,,,,,,,,,,,,,,,,,006150,2022_Apr_22_1124,palt,2021.1.2,52.72933901657055,
,,,,,,,,,,,,,,,,,,,,,,,,,,,,,,,,,,,,,,,,,,,,,,,,,,,,,,,,,,,,,,,,,,,,,264.46089795348234,None,4,21.624528045998886,264.46089795348234,None,,,,,,,,,,,,,,,,,,,,,006150,2022_Apr_22_1124,palt,2021.1.2,52.72933901657055,
7,csavarhúzó,hering,,,,,,,,,0,0,0,0,0,0,0,6,,,,,,,,,,,,,290.1373630168382,None,291.12830243376084,None,291.12830243376084,None,,,,,,,,,,,,,,,,,,,,,,,,,,,,,,,,,,,,,,,286.115139661124,None,,,,,,,,,,,,,,,,,,,006150,2022_Apr_22_1124,palt,2021.1.2,52.72933901657055,
1,bagoly,kirakó,,,,,,,,,0,0,0,0,0,1,1,0,,,,,,,,,,,,,297.1249242697377,None,298.1341419115197,None,298.1341419115197,None,,,,,,,,,,,,,,,,,,,,,,,,,,,,,,,,,,,,,,,,,,,,,,,,,,,,,,,,,,,006150,2022_Apr_22_1124,palt,2021.1.2,52.72933901657055,
8,szalvéta,puska,,,,,,,,,0,0,0,0,0,2,2,7,,,,,,,,,,,,,304.1220754405949,None,305.1409271634184,None,305.1409271634184,None,,,,,,,,,,,,,,,,,,,,,,,,,,,,,,,,,,,,,,,,,,,,,,,,,,,,,,,,,,,006150,2022_Apr_22_1124,palt,2021.1.2,52.72933901657055,
9,szilva,kecske,,,,,,,,,0,0,0,0,0,3,3,8,,,,,,,,,,,,,311.12223903043196,None,312.1253152061254,None,312.1253152061254,None,,,,,,,,,,,,,,,,,,,,,,,,,,,,,,,,,,,,,,,,,,,,,,,,,,,,,,,,,,,006150,2022_Apr_22_1124,palt,2021.1.2,52.72933901657055,
4,mocsár,ananász,,,,,,,,,0,0,0,0,0,4,4,3,,,,,,,,,,,,,318.1220807277132,None,319.1361298719421,None,319.1361298719421,None,,,,,,,,,,,,,,,,,,,,,,,,,,,,,,,,,,,,,,,,,,,,,,,,,,,,,,,,,,,006150,2022_Apr_22_1124,palt,2021.1.2,52.72933901657055,
10,málna,dominó,,,,,,,,,0,0,0,0,0,5,5,9,,,,,,,,,,,,,325.12246668804437,None,326.1327302483842,None,326.1327302483842,None,,,,,,,,,,,,,,,,,,,,,,,,,,,,,,,,,,,,,,,,,,,,,,,,,,,,,,,,,,,006150,2022_Apr_22_1124,palt,2021.1.2,52.72933901657055,
5,karton,hentes,,,,,,,,,0,0,0,0,0,6,6,4,,,,,,,,,,,,,332.1258143733721,None,333.12298513762653,None,333.12298513762653,None,,,,,,,,,,,,,,,,,,,,,,,,,,,,,,,,,,,,,,,,,,,,,,,,,,,,,,,,,,,006150,2022_Apr_22_1124,palt,2021.1.2,52.72933901657055,
2,kötény,tisztás,,,,,,,,,0,0,0,0,0,7,7,1,,,,,,,,,,,,,339.1219404633157,None,340.1244636676274,None,340.1244636676274,None,,,,,,,,,,,,,,,,,,,,,,,,,,,,,,,,,,,,,,,,,,,,,,,,,,,,,,,,,,,006150,2022_Apr_22_1124,palt,2021.1.2,52.72933901657055,
3,fogó,limonádé,,,,,,,,,0,0,0,0,0,8,8,2,,,,,,,,,,,,,346.1215697422158,None,347.127866712166,None,347.127866712166,None,,,,,,,,,,,,,,,,,,,,,,,,,,,,,,,,,,,,,,,,,,,,,,,,,,,,,,,,,,,006150,2022_Apr_22_1124,palt,2021.1.2,52.72933901657055,
6,menta,triatlon,,,,,,,,,0,0,0,0,0,9,9,5,,,,,,,,,,,,,353.1259745422285,None,354.1214916794561,None,354.1214916794561,None,,,,,,,,,,,,,,,,,,,,,,,,,,,,,,,,,,,,,,,,,,,,,,,,,,,,,,,,,,,006150,2022_Apr_22_1124,palt,2021.1.2,52.72933901657055,
7,csavarhúzó,hering,,,,,,,,,0,0,0,0,,,,,0,0,0,6,,,,,,,,,376.2728441269137,None,,,,,,,,,,,hering,377.2746946217958,None,None,,377.2746946217958,None,377.2746946217958,None,377.2746946217958,None, ,392.2586497422308,None,392.2586497422308,None,down,7.514183499617502,392.2586497422308,None,399.8144376548007,None,4,11.336910438491032,399.8144376548007,None,,,,,,,372.25423716707155,None,360.12887002248317,None,u,7.675936661427841,360.12887002248317,None,367.8515735117253,None,4,4.367390733677894,367.8515735117253,None,,,,,,,006150,2022_Apr_22_1124,palt,2021.1.2,52.72933901657055,
5,karton,hentes,,,,,,,,,0,0,0,0,,,,,0,1,1,4,,,,,,,,,411.19149636942893,None,,,,,,,,,,,hentes,412.2181279461365,None,4,8.035203567007557,412.2181279461365,None,412.2181279461365,None,412.2181279461365,None, ,420.2758369524963,None,420.2758369524963,None,down,1.8324471693485975,420.2758369524963,None,422.1321956263855,None,4,1.622243695659563,422.1321956263855,None,,,,,,,,,,,,,,,,,,,,,,,,,,,006150,2022_Apr_22_1124,palt,2021.1.2,52.72933901657055,
10,málna,dominó,,,,,,,,,0,0,0,0,,,,,0,2,2,9,,,,,,,,,423.77497110748664,None,,,,,,,,,,,málna,424.79025899479166,None,4,14.858927596127614,424.79025899479166,None,424.79025899479166,None,424.79025899479166,None, ,439.6869488169905,None,439.6869488169905,None,down,1.589276583865285,439.6869488169905,None,441.2958754801657,None,4,5.25821588630788,441.2958754801657,None,,,,,,,,,,,,,,,,,,,,,,,,,,,006150,2022_Apr_22_1124,palt,2021.1.2,52.72933901657055,
8,szalvéta,puska,,,,,,,,,0,0,0,0,,,,,0,3,3,7,,,,,,,,,446.58783444203436,None,,,,,,,,,,,puska,447.60278053209186,None,4,9.49126473069191,447.60278053209186,None,447.60278053209186,None,447.60278053209186,None, ,457.1279037219938,None,457.1279037219938,None,down,1.8441161725204438,457.1279037219938,None,459.00367953046225,None,4,1.3633267981931567,459.00367953046225,None,,,,,,,,,,,,,,,,,,,,,,,,,,,006150,2022_Apr_22_1124,palt,2021.1.2,52.72933901657055,
3,fogó,limonádé,,,,,,,,,0,0,0,0,,,,,0,4,4,2,,,,,,,,,460.39225578773767,None,,,,,,,,,,,fogó,461.39753327472135,None,4,7.236452199984342,461.39753327472135,None,461.39753327472135,None,461.39753327472135,None, limonádé,468.67146157380193,None,468.67146157380193,None,down,3.6284703777637333,468.67146157380193,None,472.33524219412357,None,4,1.98466950468719,472.33524219412357,None,,,,,,,,,,,,,,,,,,,,,,,,,,,006150,2022_Apr_22_1124,palt,2021.1.2,52.72933901657055,
2,kötény,tisztás,,,,,,,,,0,0,0,0,,,,,0,5,5,1,,,,,,,,,474.3485194174573,None,,,,,,,,,,,tisztás,475.3571669824887,None,4,11.202691086102277,475.3571669824887,None,475.3571669824887,None,475.3571669824887,None, ,486.59202651283704,None,486.59202651283704,None,down,1.6918042667675763,486.59202651283704,None,488.31626078113914,None,4,1.3264867095276713,488.31626078113914,None,,,,,,,,,,,,,,,,,,,,,,,,,,,006150,2022_Apr_22_1124,palt,2021.1.2,52.72933901657055,
1,bagoly,kirakó,,,,,,,,,0,0,0,0,,,,,0,6,6,0,,,,,,,,,489.6746767698787,None,,,,,,,,,,,bagoly,490.6800205016043,None,4,8.11296820640564,490.6800205016043,None,490.6800205016043,None,490.6800205016043,None, ,498.8291296516545,None,498.8291296516545,None,down,1.9665489606559277,498.8291296516545,None,500.8207476870157,None,4,1.147933230502531,500.8207476870157,None,,,,,,,,,,,,,,,,,,,,,,,,,,,006150,2022_Apr_22_1124,palt,2021.1.2,52.72933901657055,
4,mocsár,ananász,,,,,,,,,0,0,0,0,,,,,0,7,7,3,,,,,,,,,501.9916003081016,None,,,,,,,,,,,ananász,503.00730370148085,None,4,14.407532789511606,503.00730370148085,None,503.00730370148085,None,503.00730370148085,None, menta,517.4510197315831,None,517.4510197315831,None,down,2.848430469399318,517.4510197315831,None,520.3428497498389,None,4,2.05484835896641,520.3428497498389,None,,,,,,,,,,,,,,,,,,,,,,,,,,,006150,2022_Apr_22_1124,palt,2021.1.2,52.72933901657055,
6,menta,triatlon,,,,,,,,,0,0,0,0,,,,,0,8,8,5,,,,,,,,,522.4320908789523,None,,,,,,,,,,,triatlon,523.4523663944565,None,4,3.6579896595794708,523.4523663944565,None,523.4523663944565,None,523.4523663944565,None, menta,527.1574606357608,None,527.1574606357608,None,down,2.837987146805972,527.1574606357608,None,530.0414548187982,None,4,2.5089520413894206,530.0414548187982,None,,,,,,,,,,,,,,,,,,,,,,,,,,,006150,2022_Apr_22_1124,palt,2021.1.2,52.72933901657055,
9,szilva,kecske,,,,,,,,,0,0,0,0,,,,,0,9,9,8,,,,,,,,,532.5742477660533,None,,,,,,,,,,,szilva,533.5883292551152,None,4,9.912840133532882,533.5883292551152,None,533.5883292551152,None,533.5883292551152,None, ,543.5421900406945,None,543.5421900406945,None,down,1.2531508174724877,543.5421900406945,None,544.84492448112,None,4,1.3644249658100307,544.84492448112,None,,,,,,,,,,,,,,,,,,,,,,,,,,,006150,2022_Apr_22_1124,palt,2021.1.2,52.72933901657055,
,,,,,,,,,,,0,0,0,0,,,,,,,,,,,,,,,,,,,,,,,,,,,,,,,,,,,,,,,,,,,,,,,,,,,,,,,,,,,,,,,,,,,,,,,,,,,4,41.17591240280308,546.2803848159965,None,546.2803848159965,None,006150,2022_Apr_22_1124,palt,2021.1.2,52.72933901657055,
3,fogó,limonádé,,,,,,,,,1,0,1,0,0,0,0,2,,,,,,,,,,,,,591.5087209627964,None,592.5184135132004,None,592.5184135132004,None,,,,,,,,,,,,,,,,,,,,,,,,,,,,,,,,,,,,,,,587.4916466481518,None,,,,,,,,,,,,,,,,,,,006150,2022_Apr_22_1124,palt,2021.1.2,52.72933901657055,
5,karton,hentes,,,,,,,,,1,0,1,0,0,1,1,4,,,,,,,,,,,,,598.4989802064374,None,599.50428319606,None,599.50428319606,None,,,,,,,,,,,,,,,,,,,,,,,,,,,,,,,,,,,,,,,,,,,,,,,,,,,,,,,,,,,006150,2022_Apr_22_1124,palt,2021.1.2,52.72933901657055,
9,szilva,kecske,,,,,,,,,1,0,1,0,0,2,2,8,,,,,,,,,,,,,605.5032313684933,None,606.5137334715109,None,606.5137334715109,None,,,,,,,,,,,,,,,,,,,,,,,,,,,,,,,,,,,,,,,,,,,,,,,,,,,,,,,,,,,006150,2022_Apr_22_1124,palt,2021.1.2,52.72933901657055,
7,csavarhúzó,hering,,,,,,,,,1,0,1,0,0,3,3,6,,,,,,,,,,,,,612.5001200491097,None,613.5044191062916,None,613.5044191062916,None,,,,,,,,,,,,,,,,,,,,,,,,,,,,,,,,,,,,,,,,,,,,,,,,,,,,,,,,,,,006150,2022_Apr_22_1124,palt,2021.1.2,52.72933901657055,
10,málna,dominó,,,,,,,,,1,0,1,0,0,4,4,9,,,,,,,,,,,,,619.5030646685045,None,620.5033451972995,None,620.5033451972995,None,,,,,,,,,,,,,,,,,,,,,,,,,,,,,,,,,,,,,,,,,,,,,,,,,,,,,,,,,,,006150,2022_Apr_22_1124,palt,2021.1.2,52.72933901657055,
4,mocsár,ananász,,,,,,,,,1,0,1,0,0,5,5,3,,,,,,,,,,,,,626.5031013675034,None,627.506167590851,None,627.506167590851,None,,,,,,,,,,,,,,,,,,,,,,,,,,,,,,,,,,,,,,,,,,,,,,,,,,,,,,,,,,,006150,2022_Apr_22_1124,palt,2021.1.2,52.72933901657055,
1,bagoly,kirakó,,,,,,,,,1,0,1,0,0,6,6,0,,,,,,,,,,,,,633.5063038121443,None,634.5135913412087,None,634.5135913412087,None,,,,,,,,,,,,,,,,,,,,,,,,,,,,,,,,,,,,,,,,,,,,,,,,,,,,,,,,,,,006150,2022_Apr_22_1124,palt,2021.1.2,52.72933901657055,
8,szalvéta,puska,,,,,,,,,1,0,1,0,0,7,7,7,,,,,,,,,,,,,640.5026009562425,None,641.5122278840281,None,641.5122278840281,None,,,,,,,,,,,,,,,,,,,,,,,,,,,,,,,,,,,,,,,,,,,,,,,,,,,,,,,,,,,006150,2022_Apr_22_1124,palt,2021.1.2,52.72933901657055,
6,menta,triatlon,,,,,,,,,1,0,1,0,0,8,8,5,,,,,,,,,,,,,647.5026022002567,None,648.5082749780267,None,648.5082749780267,None,,,,,,,,,,,,,,,,,,,,,,,,,,,,,,,,,,,,,,,,,,,,,,,,,,,,,,,,,,,006150,2022_Apr_22_1124,palt,2021.1.2,52.72933901657055,
2,kötény,tisztás,,,,,,,,,1,0,1,0,0,9,9,1,,,,,,,,,,,,,654.502496146597,None,655.5106013144832,None,655.5106013144832,None,,,,,,,,,,,,,,,,,,,,,,,,,,,,,,,,,,,,,,,,,,,,,,,,,,,,,,,,,,,006150,2022_Apr_22_1124,palt,2021.1.2,52.72933901657055,
5,karton,hentes,,,,,,,,,1,0,1,0,,,,,0,0,0,4,,,,,,,,,674.4904166134074,None,,,,,,,,,,,hentes,675.4676300229039,None,None,,675.4676300229039,None,675.4676300229039,None,675.4676300229039,None, ,690.4796709914226,None,690.4796709914226,None,down,3.0984314021188766,690.4796709914226,None,693.6185924669262,None,4,2.0644715547095984,693.6185924669262,None,,,,,,,670.4627241899725,None,661.5066683129407,None,u,5.527667542919517,661.5066683129407,None,667.0601864927448,None,4,3.3590868320316076,667.0601864927448,None,,,,,,,006150,2022_Apr_22_1124,palt,2021.1.2,52.72933901657055,
3,fogó,limonádé,,,,,,,,,1,0,1,0,,,,,0,1,1,2,,,,,,,,,695.711629754398,None,,,,,,,,,,,fogó,696.7194270247128,None,4,5.087888557231054,696.7194270247128,None,696.7194270247128,None,696.7194270247128,None, limonádé,701.848466235213,None,701.848466235213,None,down,4.049392975401133,701.848466235213,None,705.9411293803714,None,4,4.292804591590539,705.9411293803714,None,,,,,,,,,,,,,,,,,,,,,,,,,,,006150,2022_Apr_22_1124,palt,2021.1.2,52.72933901657055,
7,csavarhúzó,hering,,,,,,,,,1,0,1,0,,,,,0,2,2,6,,,,,,,,,710.2659279408399,None,,,,,,,,,,,hering,711.2858591708355,None,None,,711.2858591708355,None,711.2858591708355,None,711.2858591708355,None, 4,726.2775518482085,None,726.2775518482085,None,down,2.340138074941933,726.2775518482085,None,728.6694278954528,None,4,2.092631111619994,728.6694278954528,None,,,,,,,,,,,,,,,,,,,,,,,,,,,006150,2022_Apr_22_1124,palt,2021.1.2,52.72933901657055,
2,kötény,tisztás,,,,,,,,,1,0,1,0,,,,,0,3,3,1,,,,,,,,,730.7912228072528,None,,,,,,,,,,,tisztás,731.7960459121969,None,None,,731.7960459121969,None,731.7960459121969,None,731.7960459121969,None, ,746.8016869672574,None,746.8016869672574,None,down,1.5600676876492798,746.8016869672574,None,748.3861482213251,None,4,0.5644871050026268,748.3861482213251,None,,,,,,,,,,,,,,,,,,,,,,,,,,,006150,2022_Apr_22_1124,palt,2021.1.2,52.72933901657055,
8,szalvéta,puska,,,,,,,,,1,0,1,0,,,,,0,4,4,7,,,,,,,,,748.9729451420717,None,,,,,,,,,,,puska,749.9938050406054,None,4,13.678591421805322,749.9938050406054,None,749.9938050406054,None,749.9938050406054,None, ,763.71714205225,None,763.71714205225,None,down,3.076374435564503,763.71714205225,None,766.8232435227837,None,4,3.6802108383271843,766.8232435227837,None,,,,,,,,,,,,,,,,,,,,,,,,,,,006150,2022_Apr_22_1124,palt,2021.1.2,52.72933901657055,
4,mocsár,ananász,,,,,,,,,1,0,1,0,,,,,0,5,5,3,,,,,,,,,770.5277191703208,None,,,,,,,,,,,ananász,771.535532613052,None,4,6.601195637602359,771.535532613052,None,771.535532613052,None,771.535532613052,None, mocsár,778.1775921548251,None,778.1775921548251,None,down,2.391813223948702,778.1775921548251,None,780.6140203450341,None,4,5.052345369942486,780.6140203450341,None,,,,,,,,,,,,,,,,,,,,,,,,,,,006150,2022_Apr_22_1124,palt,2021.1.2,52.72933901657055,
1,bagoly,kirakó,,,,,,,,,1,0,1,0,,,,,0,6,6,0,,,,,,,,,785.6937965813559,None,,,,,,,,,,,bagoly,786.7017664606683,None,4,9.35951851052232,786.7017664606683,None,786.7017664606683,None,786.7017664606683,None, kirakó,796.0977785976138,None,796.0977785976138,None,down,2.887502036988735,796.0977785976138,None,799.0105751899537,None,4,6.724719751160592,799.0105751899537,None,,,,,,,,,,,,,,,,,,,,,,,,,,,006150,2022_Apr_22_1124,palt,2021.1.2,52.72933901657055,
6,menta,triatlon,,,,,,,,,1,0,1,0,,,,,0,7,7,5,,,,,,,,,805.7607596174348,None,,,,,,,,,,,triatlon,806.7715475363657,None,4,3.9516171768773347,806.7715475363657,None,806.7715475363657,None,806.7715475363657,None, menta,810.7641206760891,None,810.7641206760891,None,down,3.7249679351225495,810.7641206760891,None,814.5146910639014,None,4,3.6976036245469004,814.5146910639014,None,,,,,,,,,,,,,,,,,,,,,,,,,,,006150,2022_Apr_22_1124,palt,2021.1.2,52.72933901657055,
10,málna,dominó,,,,,,,,,1,0,1,0,,,,,0,8,8,9,,,,,,,,,818.2423843580764,None,,,,,,,,,,,málna,819.2713783483487,None,4,5.3216511639766395,819.2713783483487,None,819.2713783483487,None,819.2713783483487,None, dominó,824.6312212396879,None,824.6312212396879,None,down,3.2977517885155976,824.6312212396879,None,827.9758882066235,None,4,2.499313917243853,827.9758882066235,None,,,,,,,,,,,,,,,,,,,,,,,,,,,006150,2022_Apr_22_1124,palt,2021.1.2,52.72933901657055,
9,szilva,kecske,,,,,,,,,1,0,1,0,,,,,0,9,9,8,,,,,,,,,830.5137418687809,None,,,,,,,,,,,szilva,831.5331633575261,None,4,6.178753456799313,831.5331633575261,None,831.5331633575261,None,831.5331633575261,None, kecske,837.7348262525629,None,837.7348262525629,None,down,2.3059549236204475,837.7348262525629,None,840.0729374913499,None,4,2.0480845666024834,840.0729374913499,None,,,,,,,,,,,,,,,,,,,,,,,,,,,006150,2022_Apr_22_1124,palt,2021.1.2,52.72933901657055,
,,,,,,,,,,,1,0,1,0,,,,,,,,,,,,,,,,,,,,,,,,,,,,,,,,,,,,,,,,,,,,,,,,,,,,,,,,,,,,,,,,,,,,,,,,,,,4,62.24686815403402,842.161555983359,None,842.161555983359,None,006150,2022_Apr_22_1124,palt,2021.1.2,52.72933901657055,
3,fogó,limonádé,,,,,,,,,2,0,2,0,0,0,0,2,,,,,,,,,,,,,908.4684128290974,None,909.4451724786777,None,909.4451724786777,None,,,,,,,,,,,,,,,,,,,,,,,,,,,,,,,,,,,,,,,904.4403341342695,None,,,,,,,,,,,,,,,,,,,006150,2022_Apr_22_1124,palt,2021.1.2,52.72933901657055,
9,szilva,kecske,,,,,,,,,2,0,2,0,0,1,1,8,,,,,,,,,,,,,915.4379922472872,None,916.4500851540361,None,916.4500851540361,None,,,,,,,,,,,,,,,,,,,,,,,,,,,,,,,,,,,,,,,,,,,,,,,,,,,,,,,,,,,006150,2022_Apr_22_1124,palt,2021.1.2,52.72933901657055,
1,bagoly,kirakó,,,,,,,,,2,0,2,0,0,2,2,0,,,,,,,,,,,,,922.4505186984316,None,923.452882977901,None,923.452882977901,None,,,,,,,,,,,,,,,,,,,,,,,,,,,,,,,,,,,,,,,,,,,,,,,,,,,,,,,,,,,006150,2022_Apr_22_1124,palt,2021.1.2,52.72933901657055,
2,kötény,tisztás,,,,,,,,,2,0,2,0,0,3,3,1,,,,,,,,,,,,,929.4358257686254,None,930.4440631147008,None,930.4440631147008,None,,,,,,,,,,,,,,,,,,,,,,,,,,,,,,,,,,,,,,,,,,,,,,,,,,,,,,,,,,,006150,2022_Apr_22_1124,palt,2021.1.2,52.72933901657055,
4,mocsár,ananász,,,,,,,,,2,0,2,0,0,4,4,3,,,,,,,,,,,,,936.4452262830455,None,937.4526416361332,None,937.4526416361332,None,,,,,,,,,,,,,,,,,,,,,,,,,,,,,,,,,,,,,,,,,,,,,,,,,,,,,,,,,,,006150,2022_Apr_22_1124,palt,2021.1.2,52.72933901657055,
7,csavarhúzó,hering,,,,,,,,,2,0,2,0,0,5,5,6,,,,,,,,,,,,,943.4384111745749,None,944.450451831799,None,944.450451831799,None,,,,,,,,,,,,,,,,,,,,,,,,,,,,,,,,,,,,,,,,,,,,,,,,,,,,,,,,,,,006150,2022_Apr_22_1124,palt,2021.1.2,52.72933901657055,
5,karton,hentes,,,,,,,,,2,0,2,0,0,6,6,4,,,,,,,,,,,,,950.4517126565333,None,951.4449075001758,None,951.4449075001758,None,,,,,,,,,,,,,,,,,,,,,,,,,,,,,,,,,,,,,,,,,,,,,,,,,,,,,,,,,,,006150,2022_Apr_22_1124,palt,2021.1.2,52.72933901657055,
6,menta,triatlon,,,,,,,,,2,0,2,0,0,7,7,5,,,,,,,,,,,,,957.4439415107481,None,958.4502571411431,None,958.4502571411431,None,,,,,,,,,,,,,,,,,,,,,,,,,,,,,,,,,,,,,,,,,,,,,,,,,,,,,,,,,,,006150,2022_Apr_22_1124,palt,2021.1.2,52.72933901657055,
8,szalvéta,puska,,,,,,,,,2,0,2,0,0,8,8,7,,,,,,,,,,,,,964.4499212529045,None,965.4451065449975,None,965.4451065449975,None,,,,,,,,,,,,,,,,,,,,,,,,,,,,,,,,,,,,,,,,,,,,,,,,,,,,,,,,,,,006150,2022_Apr_22_1124,palt,2021.1.2,52.72933901657055,
10,málna,dominó,,,,,,,,,2,0,2,0,0,9,9,9,,,,,,,,,,,,,971.4498820661101,None,972.4678125844803,None,972.4678125844803,None,,,,,,,,,,,,,,,,,,,,,,,,,,,,,,,,,,,,,,,,,,,,,,,,,,,,,,,,,,,006150,2022_Apr_22_1124,palt,2021.1.2,52.72933901657055,
3,fogó,limonádé,,,,,,,,,2,0,2,0,,,,,0,0,0,2,,,,,,,,,987.2686010508332,None,,,,,,,,,,,fogó,988.2593516861089,None,4,3.8942201111931354,988.2593516861089,None,988.2593516861089,None,988.2593516861089,None, limonádé,992.1785600101575,None,992.1785600101575,None,down,3.6210628000553697,992.1785600101575,None,995.8237616613042,None,4,1.682864043628797,995.8237616613042,None,,,,,,,983.2537547943648,None,978.4499511097092,None,u,2.86980819539167,978.4499511097092,None,981.3388054077514,None,4,1.8778769753407687,981.3388054077514,None,,,,,,,006150,2022_Apr_22_1124,palt,2021.1.2,52.72933901657055,
8,szalvéta,puska,,,,,,,,,2,0,2,0,,,,,0,1,1,7,,,,,,,,,997.5387686465401,None,,,,,,,,,,,puska,998.5499919760041,None,4,3.385521852178499,998.5499919760041,None,998.5499919760041,None,998.5499919760041,None, szalvéta,1001.9747947040014,None,1001.9747947040014,None,down,5.137083420995623,1001.9747947040014,None,1007.1394019823056,None,4,2.0320835390593857,1007.1394019823056,None,,,,,,,,,,,,,,,,,,,,,,,,,,,006150,2022_Apr_22_1124,palt,2021.1.2,52.72933901657055,
5,karton,hentes,,,,,,,,,2,0,2,0,,,,,0,2,2,4,,,,,,,,,1009.203677913174,None,,,,,,,,,,,hentes,1010.2114279104862,None,None,,1010.2114279104862,None,1010.2114279104862,None,1010.2114279104862,None, ,1025.2309722469654,None,1025.2309722469654,None,down,4.616368140792474,1025.2309722469654,None,1029.8764650011435,None,4,2.6748294746503234,1029.8764650011435,None,,,,,,,,,,,,,,,,,,,,,,,,,,,006150,2022_Apr_22_1124,palt,2021.1.2,52.72933901657055,
6,menta,triatlon,,,,,,,,,2,0,2,0,,,,,0,3,3,5,,,,,,,,,1032.575718209846,None,,,,,,,,,,,triatlon,1033.586484669242,None,4,3.44970230339095,1033.586484669242,None,1033.586484669242,None,1033.586484669242,None, menta,1037.0714325257577,None,1037.0714325257577,None,down,2.1197086730971932,1037.0714325257577,None,1039.2311118894722,None,4,1.602288518100977,1039.2311118894722,None,,,,,,,,,,,,,,,,,,,,,,,,,,,006150,2022_Apr_22_1124,palt,2021.1.2,52.72933901657055,
10,málna,dominó,,,,,,,,,2,0,2,0,,,,,0,4,4,9,,,,,,,,,1040.8538379576057,None,,,,,,,,,,,málna,1041.8608511779457,None,4,2.896402140147984,1041.8608511779457,None,1041.8608511779457,None,1041.8608511779457,None, dominó,1044.7901722237002,None,1044.7901722237002,None,down,3.745034453459084,1044.7901722237002,None,1048.564111408079,None,4,1.4961640329565853,1048.564111408079,None,,,,,,,,,,,,,,,,,,,,,,,,,,,006150,2022_Apr_22_1124,palt,2021.1.2,52.72933901657055,
1,bagoly,kirakó,,,,,,,,,2,0,2,0,,,,,0,5,5,0,,,,,,,,,1050.091757180402,None,,,,,,,,,,,bagoly,1051.1145562110469,None,4,3.2396014626137912,1051.1145562110469,None,1051.1145562110469,None,1051.1145562110469,None, kirakó,1054.3854136215523,None,1054.3854136215523,None,down,2.374031055951491,1054.3854136215523,None,1056.795787775889,None,4,1.3455312568694353,1056.795787775889,None,,,,,,,,,,,,,,,,,,,,,,,,,,,006150,2022_Apr_22_1124,palt,2021.1.2,52.72933901657055,
7,csavarhúzó,hering,,,,,,,,,2,0,2,0,,,,,0,6,6,6,,,,,,,,,1058.1754045276903,None,,,,,,,,,,,hering,1059.1856755521148,None,4,10.225353273563087,1059.1856755521148,None,1059.1856755521148,None,1059.1856755521148,None, csavarhúzó,1069.4469178530853,None,1069.4469178530853,None,down,4.9279417272191495,1069.4469178530853,None,1074.4096787418239,None,4,3.0801441583316773,1074.4096787418239,None,,,,,,,,,,,,,,,,,,,,,,,,,,,006150,2022_Apr_22_1124,palt,2021.1.2,52.72933901657055,
9,szilva,kecske,,,,,,,,,2,0,2,0,,,,,0,7,7,8,,,,,,,,,1077.5160240421537,None,,,,,,,,,,,szilva,1078.5278370419983,None,4,3.667040912201628,1078.5278370419983,None,1078.5278370419983,None,1078.5278370419983,None, kecske,1082.2358205437195,None,1082.2358205437195,None,down,2.491076571168378,1082.2358205437195,None,1084.7587900066283,None,4,1.1911741653457284,1084.7587900066283,None,,,,,,,,,,,,,,,,,,,,,,,,,,,006150,2022_Apr_22_1124,palt,2021.1.2,52.72933901657055,
4,mocsár,ananász,,,,,,,,,2,0,2,0,,,,,0,8,8,3,,,,,,,,,1085.9697588696145,None,,,,,,,,,,,ananász,1086.9766738116741,None,4,3.848134701140225,1086.9766738116741,None,1086.9766738116741,None,1086.9766738116741,None, mocsár,1090.8491059776861,None,1090.8491059776861,None,down,2.3416934236884117,1090.8491059776861,None,1093.2165057307575,None,4,1.385261849500239,1093.2165057307575,None,,,,,,,,,,,,,,,,,,,,,,,,,,,006150,2022_Apr_22_1124,palt,2021.1.2,52.72933901657055,
2,kötény,tisztás,,,,,,,,,2,0,2,0,,,,,0,9,9,1,,,,,,,,,1094.6201851365622,None,,,,,,,,,,,tisztás,1095.6311198512558,None,None,,1095.6311198512558,None,1095.6311198512558,None,1095.6311198512558,None, ,1110.630740422057,None,1110.630740422057,None,down,2.032004543347284,1110.630740422057,None,1112.7005205645692,None,4,1.1611289698630571,1112.7005205645692,None,,,,,,,,,,,,,,,,,,,,,,,,,,,006150,2022_Apr_22_1124,palt,2021.1.2,52.72933901657055,
,,,,,,,,,,,2,0,2,0,,,,,,,,,,,,,,,,,,,,,,,,,,,,,,,,,,,,,,,,,,,,,,,,,,,,,,,,,,,,,,,,,,,,,,,,,,,4,46.61775367963128,1113.90545463725,None,1113.90545463725,None,006150,2022_Apr_22_1124,palt,2021.1.2,52.72933901657055,
8,szalvéta,puska,,,,,,,,,3,0,3,0,0,0,0,7,,,,,,,,,,,,,1164.5875271665864,None,1165.5819738158025,None,1165.5819738158025,None,,,,,,,,,,,,,,,,,,,,,,,,,,,,,,,,,,,,,,,1160.5612062863074,None,,,,,,,,,,,,,,,,,,,006150,2022_Apr_22_1124,palt,2021.1.2,52.72933901657055,
7,csavarhúzó,hering,,,,,,,,,3,0,3,0,0,1,1,6,,,,,,,,,,,,,1171.5672774647828,None,1172.5790910867509,None,1172.5790910867509,None,,,,,,,,,,,,,,,,,,,,,,,,,,,,,,,,,,,,,,,,,,,,,,,,,,,,,,,,,,,006150,2022_Apr_22_1124,palt,2021.1.2,52.72933901657055,
3,fogó,limonádé,,,,,,,,,3,0,3,0,0,2,2,2,,,,,,,,,,,,,1178.5694451874588,None,1179.5817915652879,None,1179.5817915652879,None,,,,,,,,,,,,,,,,,,,,,,,,,,,,,,,,,,,,,,,,,,,,,,,,,,,,,,,,,,,006150,2022_Apr_22_1124,palt,2021.1.2,52.72933901657055,
6,menta,triatlon,,,,,,,,,3,0,3,0,0,3,3,5,,,,,,,,,,,,,1185.5721378908493,None,1186.5664862615522,None,1186.5664862615522,None,,,,,,,,,,,,,,,,,,,,,,,,,,,,,,,,,,,,,,,,,,,,,,,,,,,,,,,,,,,006150,2022_Apr_22_1124,palt,2021.1.2,52.72933901657055,
2,kötény,tisztás,,,,,,,,,3,0,3,0,0,4,4,1,,,,,,,,,,,,,1192.5683249381837,None,1193.5752821771894,None,1193.5752821771894,None,,,,,,,,,,,,,,,,,,,,,,,,,,,,,,,,,,,,,,,,,,,,,,,,,,,,,,,,,,,006150,2022_Apr_22_1124,palt,2021.1.2,52.72933901657055,
1,bagoly,kirakó,,,,,,,,,3,0,3,0,0,5,5,0,,,,,,,,,,,,,1199.5656101533677,None,1200.5746576741803,None,1200.5746576741803,None,,,,,,,,,,,,,,,,,,,,,,,,,,,,,,,,,,,,,,,,,,,,,,,,,,,,,,,,,,,006150,2022_Apr_22_1124,palt,2021.1.2,52.72933901657055,
10,málna,dominó,,,,,,,,,3,0,3,0,0,6,6,9,,,,,,,,,,,,,1206.564907898195,None,1207.5746097788215,None,1207.5746097788215,None,,,,,,,,,,,,,,,,,,,,,,,,,,,,,,,,,,,,,,,,,,,,,,,,,,,,,,,,,,,006150,2022_Apr_22_1124,palt,2021.1.2,52.72933901657055,
4,mocsár,ananász,,,,,,,,,3,0,3,0,0,7,7,3,,,,,,,,,,,,,1213.5645807182882,None,1214.5739165430423,None,1214.5739165430423,None,,,,,,,,,,,,,,,,,,,,,,,,,,,,,,,,,,,,,,,,,,,,,,,,,,,,,,,,,,,006150,2022_Apr_22_1124,palt,2021.1.2,52.72933901657055,
9,szilva,kecske,,,,,,,,,3,0,3,0,0,8,8,8,,,,,,,,,,,,,1220.5695024128072,None,1221.5681234053336,None,1221.5681234053336,None,,,,,,,,,,,,,,,,,,,,,,,,,,,,,,,,,,,,,,,,,,,,,,,,,,,,,,,,,,,006150,2022_Apr_22_1124,palt,2021.1.2,52.72933901657055,
5,karton,hentes,,,,,,,,,3,0,3,0,0,9,9,4,,,,,,,,,,,,,1227.569031858351,None,1228.5813477574848,None,1228.5813477574848,None,,,,,,,,,,,,,,,,,,,,,,,,,,,,,,,,,,,,,,,,,,,,,,,,,,,,,,,,,,,006150,2022_Apr_22_1124,palt,2021.1.2,52.72933901657055,
2,kötény,tisztás,,,,,,,,,3,0,3,0,,,,,0,0,0,1,,,,,,,,,1242.7164130504243,None,,,,,,,,,,,tisztás,1243.7012545424514,None,None,,1243.7012545424514,None,1243.7012545424514,None,1243.7012545424514,None, ,1258.7144384635612,None,1258.7144384635612,None,down,5.0669552609324455,1258.7144384635612,None,1263.8259063693695,None,4,4.441449718084186,1263.8259063693695,None,,,,,,,1238.6977068791166,None,1234.5644640906248,None,u,2.6415305179543793,1234.5644640906248,None,1237.235231806524,None,4,1.4253821349702775,1237.235231806524,None,,,,,,,006150,2022_Apr_22_1124,palt,2021.1.2,52.72933901657055,
8,szalvéta,puska,,,,,,,,,3,0,3,0,,,,,0,1,1,7,,,,,,,,,1268.3012854564004,None,,,,,,,,,,,puska,1269.3201486866456,None,4,4.551032607443631,1269.3201486866456,None,1269.3201486866456,None,1269.3201486866456,None, szalvéta,1273.9108276036568,None,1273.9108276036568,None,down,2.846351694781333,1273.9108276036568,None,1276.8013202892616,None,4,1.2461214249487966,1276.8013202892616,None,,,,,,,,,,,,,,,,,,,,,,,,,,,006150,2022_Apr_22_1124,palt,2021.1.2,52.72933901657055,
4,mocsár,ananász,,,,,,,,,3,0,3,0,,,,,0,2,2,3,,,,,,,,,1278.0733492653817,None,,,,,,,,,,,ananász,1279.0828437039163,None,4,2.947434747358784,1279.0828437039163,None,1279.0828437039163,None,1279.0828437039163,None, mocsár,1282.0611876258627,None,1282.0611876258627,None,down,2.50408788328059,1282.0611876258627,None,1284.5974200058263,None,4,1.008072511991486,1284.5974200058263,None,,,,,,,,,,,,,,,,,,,,,,,,,,,006150,2022_Apr_22_1124,palt,2021.1.2,52.72933901657055,
5,karton,hentes,,,,,,,,,3,0,3,0,,,,,0,3,3,4,,,,,,,,,1285.6425238761585,None,,,,,,,,,,,hentes,1286.6492640317883,None,4,5.355945033719763,1286.6492640317883,None,1286.6492640317883,None,1286.6492640317883,None, karton,1292.038944987813,None,1292.038944987813,None,down,2.9103931258432567,1292.038944987813,None,1294.9760598826688,None,4,0.87505395966582,1294.9760598826688,None,,,,,,,,,,,,,,,,,,,,,,,,,,,006150,2022_Apr_22_1124,palt,2021.1.2,52.72933901657055,
3,fogó,limonádé,,,,,,,,,3,0,3,0,,,,,0,4,4,2,,,,,,,,,1295.8850229959935,None,,,,,,,,,,,fogó,1296.8914188663475,None,4,1.6810449603945017,1296.8914188663475,None,1296.8914188663475,None,1296.8914188663475,None, limonádé,1298.6142106815241,None,1298.6142106815241,None,down,3.086895199259743,1298.6142106815241,None,1301.729777666973,None,4,0.8152979018632323,1301.729777666973,None,,,,,,,,,,,,,,,,,,,,,,,,,,,006150,2022_Apr_22_1124,palt,2021.1.2,52.72933901657055,
7,csavarhúzó,hering,,,,,,,,,3,0,3,0,,,,,0,5,5,6,,,,,,,,,1302.568379364675,None,,,,,,,,,,,hering,1303.5757057694718,None,4,3.709329853300005,1303.5757057694718,None,1303.5757057694718,None,1303.5757057694718,None, csavarhúzó,1307.3161068323534,None,1307.3161068323534,None,down,4.0809167008847,1307.3161068323534,None,1311.4204433350824,None,4,1.14157032687217,1311.4204433350824,None,,,,,,,,,,,,,,,,,,,,,,,,,,,006150,2022_Apr_22_1124,palt,2021.1.2,52.72933901657055,
10,málna,dominó,,,,,,,,,3,0,3,0,,,,,0,6,6,9,,,,,,,,,1312.5898457278963,None,,,,,,,,,,,málna,1313.5974902934395,None,4,7.9944382519461215,1313.5974902934395,None,1313.5974902934395,None,1313.5974902934395,None, dominó,1321.6396302618086,None,1321.6396302618086,None,down,3.293300337623805,1321.6396302618086,None,1324.9671734638978,None,4,0.9116555056534708,1324.9671734638978,None,,,,,,,,,,,,,,,,,,,,,,,,,,,006150,2022_Apr_22_1124,palt,2021.1.2,52.72933901657055,
6,menta,triatlon,,,,,,,,,3,0,3,0,,,,,0,7,7,5,,,,,,,,,1325.9071396761574,None,,,,,,,,,,,triatlon,1326.914471990196,None,4,1.6244182602968067,1326.914471990196,None,1326.914471990196,None,1326.914471990196,None, menta,1328.5760419687722,None,1328.5760419687722,None,down,2.692879419773817,1328.5760419687722,None,1331.3071022308432,None,4,1.059738019714132,1331.3071022308432,None,,,,,,,,,,,,,,,,,,,,,,,,,,,006150,2022_Apr_22_1124,palt,2021.1.2,52.72933901657055,
9,szilva,kecske,,,,,,,,,3,0,3,0,,,,,0,8,8,8,,,,,,,,,1332.4077676003799,None,,,,,,,,,,,szilva,1333.4156591058709,None,4,2.238125420641154,1333.4156591058709,None,1333.4156591058709,None,1333.4156591058709,None, kecske,1335.6930999243632,None,1335.6930999243632,None,down,2.5358697450719774,1335.6930999243632,None,1338.2551720556803,None,4,1.5136149774771184,1338.2551720556803,None,,,,,,,,,,,,,,,,,,,,,,,,,,,006150,2022_Apr_22_1124,palt,2021.1.2,52.72933901657055,
1,bagoly,kirakó,,,,,,,,,3,0,3,0,,,,,0,9,9,0,,,,,,,,,1339.8063828703016,None,,,,,,,,,,,bagoly,1340.8136713323183,None,4,3.7759476711507887,1340.8136713323183,None,1340.8136713323183,None,1340.8136713323183,None, kirakó,1344.633725472493,None,1344.633725472493,None,down,3.54701314563863,1344.633725472493,None,1348.2073801471852,None,4,0.9155978374183178,1348.2073801471852,None,,,,,,,,,,,,,,,,,,,,,,,,,,,006150,2022_Apr_22_1124,palt,2021.1.2,52.72933901657055,
,,,,,,,,,,,3,0,3,0,,,,,,,,,,,,,,,,,,,,,,,,,,,,,,,,,,,,,,,,,,,,,,,,,,,,,,,,,,,,,,,,,,,,,,,,,,,4,208.81941999588162,1349.1746310517192,None,1349.1746310517192,None,006150,2022_Apr_22_1124,palt,2021.1.2,52.72933901657055,
