itemno,wordA,wordB,enc_gyak.thisRepN,enc_gyak.thisTrialN,enc_gyak.thisN,enc_gyak.thisIndex,rec_gyak.thisRepN,rec_gyak.thisTrialN,rec_gyak.thisN,rec_gyak.thisIndex,repeat_task.thisRepN,repeat_task.thisTrialN,repeat_task.thisN,repeat_task.thisIndex,enc_loop.thisRepN,enc_loop.thisTrialN,enc_loop.thisN,enc_loop.thisIndex,test_loop.thisRepN,test_loop.thisTrialN,test_loop.thisN,test_loop.thisIndex,int.started,int.stopped,int_key.keys,int_key.rt,int_key.started,int_key.stopped,prepare_gyak_text.started,prepare_gyak_text.stopped,fix.started,fix.stopped,word1.started,word1.stopped,word2.started,word2.stopped,gykrec_inst.started,gykrec_inst.stopped,gyakrec_inst.keys,gyakrec_inst.rt,gyakrec_inst.started,gyakrec_inst.stopped,cueword,cueword1.started,cueword1.stopped,cue_resp.keys,cue_resp.rt,cue_resp.started,cue_resp.stopped,cue_cont_text.started,cue_cont_text.stopped,cue_space.started,cue_space.stopped,test_ansbox.text,test_ansbox.started,test_ansbox.stopped,ans_text.started,ans_text.stopped,ans_continue.keys,ans_continue.rt,ans_continue.started,ans_continue.stopped,feedback_text.started,feedback_text.stopped,feedback_cont.keys,feedback_cont.rt,feedback_cont.started,feedback_cont.stopped,main_prep.started,main_prep.stopped,main_prep_resp.keys,main_prep_resp.rt,main_prep_resp.started,main_prep_resp.stopped,preparation.started,preparation.stopped,break_text.started,break_text.stopped,key_resp.keys,key_resp.rt,key_resp.started,key_resp.stopped,test_instruction.started,test_instruction.stopped,test_i_key.keys,test_i_key.rt,test_i_key.started,test_i_key.stopped,rep_routine.keys,rep_routine.rt,rep_routine.started,rep_routine.stopped,encrep_textbox.started,encrep_textbox.stopped,Résztvevő kódja,date,expName,psychopyVersion,frameRate,
,,,,,,,,,,,,,,,,,,,,,,,24.453633439028636,None,4,108.36668567958986,24.453633439028636,None,,,,,,,,,,,,,,,,,,,,,,,,,,,,,,,,,,,,,,,,,,,,,,,,,,,,,,,,,,,,,,,,,,,085639,2022_Apr_14_1533,palt,2021.1.2,52.63447725124309,
3,majoránna,szikla,0,0,0,2,,,,,,,,,,,,,,,,,,,,,,,132.84214500669623,None,135.86261552380165,None,136.88165105204098,None,136.88165105204098,None,,,,,,,,,,,,,,,,,,,,,,,,,,,,,,,,,,,,,,,,,,,,,,,,,,,,,,,,,,,085639,2022_Apr_14_1533,palt,2021.1.2,52.63447725124309,
1,sapka,beton,0,1,1,0,,,,,,,,,,,,,,,,,,,,,,,,,142.845897934807,None,143.8678839917411,None,143.8678839917411,None,,,,,,,,,,,,,,,,,,,,,,,,,,,,,,,,,,,,,,,,,,,,,,,,,,,,,,,,,,,085639,2022_Apr_14_1533,palt,2021.1.2,52.63447725124309,
4,kard,harcsa,0,2,2,3,,,,,,,,,,,,,,,,,,,,,,,,,149.84450493199984,None,150.86494963546284,None,150.86494963546284,None,,,,,,,,,,,,,,,,,,,,,,,,,,,,,,,,,,,,,,,,,,,,,,,,,,,,,,,,,,,085639,2022_Apr_14_1533,palt,2021.1.2,52.63447725124309,
2,lepke,szintetizátor,0,3,3,1,,,,,,,,,,,,,,,,,,,,,,,,,156.84425457089674,None,157.8554237851058,None,157.8554237851058,None,,,,,,,,,,,,,,,,,,,,,,,,,,,,,,,,,,,,,,,,,,,,,,,,,,,,,,,,,,,085639,2022_Apr_14_1533,palt,2021.1.2,52.63447725124309,
,,,,,,,,,,,,,,,,,,,,,,,,,,,,,,,,,,,,,163.84975784952985,None,4,2.958358265750576,163.84975784952985,None,,,,,,,,,,,,,,,,,,,,,,,,,,,,,,,,,,,,,,,,,,,,,,,,,,,,,085639,2022_Apr_14_1533,palt,2021.1.2,52.63447725124309,
3,majoránna,szikla,,,,,0,0,0,2,,,,,,,,,,,,,,,,,,,,,166.85596400522627,None,,,,,,,,,,,majoránna,167.86394912417745,None,4,3.4939652094617486,167.86394912417745,None,167.86394912417745,None,167.86394912417745,None, szikla,171.4173873748514,None,171.4173873748514,None,down,2.328579168242868,171.4173873748514,None,173.79665299894987,None,4,1.6555998775875196,173.79665299894987,None,,,,,,,,,,,,,,,,,,,,,,,,,,,085639,2022_Apr_14_1533,palt,2021.1.2,52.63447725124309,
4,kard,harcsa,,,,,0,1,1,3,,,,,,,,,,,,,,,,,,,,,175.50003918696893,None,,,,,,,,,,,harcsa,176.50386582390638,None,4,5.013263539120089,176.50386582390638,None,176.50386582390638,None,176.50386582390638,None, kard,181.5513921320089,None,181.5513921320089,None,down,9.186526157543994,181.5513921320089,None,190.762205180421,None,4,1.7435335309710354,190.762205180421,None,,,,,,,,,,,,,,,,,,,,,,,,,,,085639,2022_Apr_14_1533,palt,2021.1.2,52.63447725124309,
2,lepke,szintetizátor,,,,,0,2,2,1,,,,,,,,,,,,,,,,,,,,,192.53289868991124,None,,,,,,,,,,,lepke,193.5570412732195,None,4,3.103786952327937,193.5570412732195,None,193.5570412732195,None,193.5570412732195,None, számítógép,196.69501915184082,None,196.69501915184082,None,down,11.834998364094645,196.69501915184082,None,208.56917772092856,None,4,1.1535282562836073,208.56917772092856,None,,,,,,,,,,,,,,,,,,,,,,,,,,,085639,2022_Apr_14_1533,palt,2021.1.2,52.63447725124309,
1,sapka,beton,,,,,0,3,3,0,,,,,,,,,,,,,,,,,,,,,209.7449283998576,None,,,,,,,,,,,beton,210.76097545656376,None,4,7.142666628526058,210.76097545656376,None,210.76097545656376,None,210.76097545656376,None, sárga,217.93967915221583,None,217.93967915221583,None,down,10.36575327895116,217.93967915221583,None,228.34501094126608,None,4,31.80933184386231,228.34501094126608,None,,,,,,,,,,,,,,,,,,,,,,,,,,,085639,2022_Apr_14_1533,palt,2021.1.2,52.63447725124309,
,,,,,,,,,,,,,,,,,,,,,,,,,,,,,,,,,,,,,,,,,,,,,,,,,,,,,,,,,,,,,,,,,,,,,260.1913548609009,None,4,2.2319251740700565,260.1913548609009,None,,,,,,,,,,,,,,,,,,,,,085639,2022_Apr_14_1533,palt,2021.1.2,52.63447725124309,
8,szalvéta,puska,,,,,,,,,0,0,0,0,0,0,0,7,,,,,,,,,,,,,266.4813059580629,None,267.4770212069852,None,267.4770212069852,None,,,,,,,,,,,,,,,,,,,,,,,,,,,,,,,,,,,,,,,262.45917652663775,None,,,,,,,,,,,,,,,,,,,085639,2022_Apr_14_1533,palt,2021.1.2,52.63447725124309,
7,csavarhúzó,hering,,,,,,,,,0,0,0,0,0,1,1,6,,,,,,,,,,,,,273.45800340618007,None,274.47456082626013,None,274.47456082626013,None,,,,,,,,,,,,,,,,,,,,,,,,,,,,,,,,,,,,,,,,,,,,,,,,,,,,,,,,,,,085639,2022_Apr_14_1533,palt,2021.1.2,52.63447725124309,
6,menta,triatlon,,,,,,,,,0,0,0,0,0,2,2,5,,,,,,,,,,,,,280.4590368842473,None,281.47139103728114,None,281.47139103728114,None,,,,,,,,,,,,,,,,,,,,,,,,,,,,,,,,,,,,,,,,,,,,,,,,,,,,,,,,,,,085639,2022_Apr_14_1533,palt,2021.1.2,52.63447725124309,
4,mocsár,ananász,,,,,,,,,0,0,0,0,0,3,3,3,,,,,,,,,,,,,287.4597833023872,None,288.4777816204587,None,288.4777816204587,None,,,,,,,,,,,,,,,,,,,,,,,,,,,,,,,,,,,,,,,,,,,,,,,,,,,,,,,,,,,085639,2022_Apr_14_1533,palt,2021.1.2,52.63447725124309,
3,fogó,limonádé,,,,,,,,,0,0,0,0,0,4,4,2,,,,,,,,,,,,,294.45837412716355,None,295.47788456396665,None,295.47788456396665,None,,,,,,,,,,,,,,,,,,,,,,,,,,,,,,,,,,,,,,,,,,,,,,,,,,,,,,,,,,,085639,2022_Apr_14_1533,palt,2021.1.2,52.63447725124309,
1,bagoly,kirakó,,,,,,,,,0,0,0,0,0,5,5,0,,,,,,,,,,,,,301.4572467248072,None,302.4770311592729,None,302.4770311592729,None,,,,,,,,,,,,,,,,,,,,,,,,,,,,,,,,,,,,,,,,,,,,,,,,,,,,,,,,,,,085639,2022_Apr_14_1533,palt,2021.1.2,52.63447725124309,
5,karton,hentes,,,,,,,,,0,0,0,0,0,6,6,4,,,,,,,,,,,,,308.4577076379792,None,309.4720192725654,None,309.4720192725654,None,,,,,,,,,,,,,,,,,,,,,,,,,,,,,,,,,,,,,,,,,,,,,,,,,,,,,,,,,,,085639,2022_Apr_14_1533,palt,2021.1.2,52.63447725124309,
9,szilva,kecske,,,,,,,,,0,0,0,0,0,7,7,8,,,,,,,,,,,,,315.47204166505253,None,316.4720718328026,None,316.4720718328026,None,,,,,,,,,,,,,,,,,,,,,,,,,,,,,,,,,,,,,,,,,,,,,,,,,,,,,,,,,,,085639,2022_Apr_14_1533,palt,2021.1.2,52.63447725124309,
2,kötény,tisztás,,,,,,,,,0,0,0,0,0,8,8,1,,,,,,,,,,,,,322.4608481922769,None,323.479431204556,None,323.479431204556,None,,,,,,,,,,,,,,,,,,,,,,,,,,,,,,,,,,,,,,,,,,,,,,,,,,,,,,,,,,,085639,2022_Apr_14_1533,palt,2021.1.2,52.63447725124309,
10,málna,dominó,,,,,,,,,0,0,0,0,0,9,9,9,,,,,,,,,,,,,329.4573701947811,None,330.4742843405693,None,330.4742843405693,None,,,,,,,,,,,,,,,,,,,,,,,,,,,,,,,,,,,,,,,,,,,,,,,,,,,,,,,,,,,085639,2022_Apr_14_1533,palt,2021.1.2,52.63447725124309,
5,karton,hentes,,,,,,,,,0,0,0,0,,,,,0,0,0,4,,,,,,,,,346.4810954059358,None,,,,,,,,,,,karton,347.4690155615681,None,4,2.235448578663636,347.4690155615681,None,347.4690155615681,None,347.4690155615681,None, ,349.7525714104413,None,349.7525714104413,None,down,14.93617907317821,349.7525714104413,None,364.72566770215053,None,4,1.8796615367173217,364.72566770215053,None,,,,,,,342.45840522792423,None,336.45954351557884,None,u,4.437178962456528,336.45954351557884,None,340.9460728454287,None,4,1.4814857203746215,340.9460728454287,None,,,,,,,085639,2022_Apr_14_1533,palt,2021.1.2,52.63447725124309,
2,kötény,tisztás,,,,,,,,,0,0,0,0,,,,,0,1,1,1,,,,,,,,,366.62930325604975,None,,,,,,,,,,,kötény,367.65866392402677,None,4,2.2707137250108644,367.65866392402677,None,367.65866392402677,None,367.65866392402677,None, tisztás,369.9647513370146,None,369.9647513370146,None,down,3.2195156617090106,369.9647513370146,None,373.27954229642637,None,4,1.3336426821770146,373.27954229642637,None,,,,,,,,,,,,,,,,,,,,,,,,,,,085639,2022_Apr_14_1533,palt,2021.1.2,52.63447725124309,
9,szilva,kecske,,,,,,,,,0,0,0,0,,,,,0,2,2,8,,,,,,,,,374.64450561621925,None,,,,,,,,,,,kecske,375.6624687904259,None,4,12.574768392718397,375.6624687904259,None,375.6624687904259,None,375.6624687904259,None, ,388.29401689890074,None,388.29401689890074,None,down,1.8661149807740003,388.29401689890074,None,390.20004845497897,None,4,1.5074337025289424,390.20004845497897,None,,,,,,,,,,,,,,,,,,,,,,,,,,,085639,2022_Apr_14_1533,palt,2021.1.2,52.63447725124309,
1,bagoly,kirakó,,,,,,,,,0,0,0,0,,,,,0,3,3,0,,,,,,,,,391.748187137011,None,,,,,,,,,,,kirakó,392.7579540181905,None,4,8.558213460666593,392.7579540181905,None,392.7579540181905,None,392.7579540181905,None, ,401.346234755998,None,401.346234755998,None,down,3.277884937124327,401.346234755998,None,404.64585818804335,None,4,1.943108321458567,404.64585818804335,None,,,,,,,,,,,,,,,,,,,,,,,,,,,085639,2022_Apr_14_1533,palt,2021.1.2,52.63447725124309,
8,szalvéta,puska,,,,,,,,,0,0,0,0,,,,,0,4,4,7,,,,,,,,,406.6132770368131,None,,,,,,,,,,,puska,407.6479584220215,None,4,11.056044493976515,407.6479584220215,None,407.6479584220215,None,407.6479584220215,None, ,418.740016035561,None,418.740016035561,None,down,3.8838539185235277,418.740016035561,None,422.65995553840185,None,4,2.0489286411902867,422.65995553840185,None,,,,,,,,,,,,,,,,,,,,,,,,,,,085639,2022_Apr_14_1533,palt,2021.1.2,52.63447725124309,
7,csavarhúzó,hering,,,,,,,,,0,0,0,0,,,,,0,5,5,6,,,,,,,,,424.7448867248604,None,,,,,,,,,,,csavarhúzó,425.76331516634673,None,4,6.195546309638303,425.76331516634673,None,425.76331516634673,None,425.76331516634673,None, ,432.005104877986,None,432.005104877986,None,down,2.714780571695883,432.005104877986,None,434.75124496326316,None,4,0.9259111587889493,434.75124496326316,None,,,,,,,,,,,,,,,,,,,,,,,,,,,085639,2022_Apr_14_1533,palt,2021.1.2,52.63447725124309,
6,menta,triatlon,,,,,,,,,0,0,0,0,,,,,0,6,6,5,,,,,,,,,435.7147681314382,None,,,,,,,,,,,menta,436.7367333508446,None,4,11.856149054714479,436.7367333508446,None,436.7367333508446,None,436.7367333508446,None, triatlon,448.6246141951415,None,448.6246141951415,None,down,3.5511738046770915,448.6246141951415,None,452.2124585893471,None,4,3.2431889345753007,452.2124585893471,None,,,,,,,,,,,,,,,,,,,,,,,,,,,085639,2022_Apr_14_1533,palt,2021.1.2,52.63447725124309,
3,fogó,limonádé,,,,,,,,,0,0,0,0,,,,,0,7,7,2,,,,,,,,,455.49719657795504,None,,,,,,,,,,,fogó,456.52159387641586,None,4,7.384022795653436,456.52159387641586,None,456.52159387641586,None,456.52159387641586,None, ,463.93903723260155,None,463.93903723260155,None,down,1.852881609403994,463.93903723260155,None,465.8339676851174,None,4,1.3686266777222045,465.8339676851174,None,,,,,,,,,,,,,,,,,,,,,,,,,,,085639,2022_Apr_14_1533,palt,2021.1.2,52.63447725124309,
10,málna,dominó,,,,,,,,,0,0,0,0,,,,,0,8,8,9,,,,,,,,,467.2396493576816,None,,,,,,,,,,,málna,468.2547745879856,None,4,7.155744807154406,468.2547745879856,None,468.2547745879856,None,468.2547745879856,None, ,475.4410836622701,None,475.4410836622701,None,down,2.5104781554546207,475.4410836622701,None,477.9827524541761,None,4,1.1529544473742135,477.9827524541761,None,,,,,,,,,,,,,,,,,,,,,,,,,,,085639,2022_Apr_14_1533,palt,2021.1.2,52.63447725124309,
4,mocsár,ananász,,,,,,,,,0,0,0,0,,,,,0,9,9,3,,,,,,,,,479.1697339268285,None,,,,,,,,,,,ananász,480.1902031999198,None,4,6.312134954845533,480.1902031999198,None,480.1902031999198,None,480.1902031999198,None, ,486.5570002202294,None,486.5570002202294,None,down,12.130326159822289,486.5570002202294,None,498.72080976417055,None,4,0.8905194323742762,498.72080976417055,None,,,,,,,,,,,,,,,,,,,,,,,,,,,085639,2022_Apr_14_1533,palt,2021.1.2,52.63447725124309,
,,,,,,,,,,,0,0,0,0,,,,,,,,,,,,,,,,,,,,,,,,,,,,,,,,,,,,,,,,,,,,,,,,,,,,,,,,,,,,,,,,,,,,,,,,,,,4,5.483490786107723,499.67379692947725,None,499.67379692947725,None,085639,2022_Apr_14_1533,palt,2021.1.2,52.63447725124309,
5,karton,hentes,,,,,,,,,1,0,1,0,0,0,0,4,,,,,,,,,,,,,509.2131729737157,None,510.2096616984345,None,510.2096616984345,None,,,,,,,,,,,,,,,,,,,,,,,,,,,,,,,,,,,,,,,505.1874927690951,None,,,,,,,,,,,,,,,,,,,085639,2022_Apr_14_1533,palt,2021.1.2,52.63447725124309,
4,mocsár,ananász,,,,,,,,,1,0,1,0,0,1,1,3,,,,,,,,,,,,,516.1887100526365,None,517.2052907983307,None,517.2052907983307,None,,,,,,,,,,,,,,,,,,,,,,,,,,,,,,,,,,,,,,,,,,,,,,,,,,,,,,,,,,,085639,2022_Apr_14_1533,palt,2021.1.2,52.63447725124309,
3,fogó,limonádé,,,,,,,,,1,0,1,0,0,2,2,2,,,,,,,,,,,,,523.1906118638581,None,524.2041385153425,None,524.2041385153425,None,,,,,,,,,,,,,,,,,,,,,,,,,,,,,,,,,,,,,,,,,,,,,,,,,,,,,,,,,,,085639,2022_Apr_14_1533,palt,2021.1.2,52.63447725124309,
8,szalvéta,puska,,,,,,,,,1,0,1,0,0,3,3,7,,,,,,,,,,,,,530.1904995901277,None,531.2031056592241,None,531.2031056592241,None,,,,,,,,,,,,,,,,,,,,,,,,,,,,,,,,,,,,,,,,,,,,,,,,,,,,,,,,,,,085639,2022_Apr_14_1533,palt,2021.1.2,52.63447725124309,
2,kötény,tisztás,,,,,,,,,1,0,1,0,0,4,4,1,,,,,,,,,,,,,537.1907754538115,None,538.201919787447,None,538.201919787447,None,,,,,,,,,,,,,,,,,,,,,,,,,,,,,,,,,,,,,,,,,,,,,,,,,,,,,,,,,,,085639,2022_Apr_14_1533,palt,2021.1.2,52.63447725124309,
7,csavarhúzó,hering,,,,,,,,,1,0,1,0,0,5,5,6,,,,,,,,,,,,,544.1897258033277,None,545.200966238277,None,545.200966238277,None,,,,,,,,,,,,,,,,,,,,,,,,,,,,,,,,,,,,,,,,,,,,,,,,,,,,,,,,,,,085639,2022_Apr_14_1533,palt,2021.1.2,52.63447725124309,
10,málna,dominó,,,,,,,,,1,0,1,0,0,6,6,9,,,,,,,,,,,,,551.1908028224716,None,552.2029084804235,None,552.2029084804235,None,,,,,,,,,,,,,,,,,,,,,,,,,,,,,,,,,,,,,,,,,,,,,,,,,,,,,,,,,,,085639,2022_Apr_14_1533,palt,2021.1.2,52.63447725124309,
1,bagoly,kirakó,,,,,,,,,1,0,1,0,0,7,7,0,,,,,,,,,,,,,558.2007665714482,None,559.2027623069007,None,559.2027623069007,None,,,,,,,,,,,,,,,,,,,,,,,,,,,,,,,,,,,,,,,,,,,,,,,,,,,,,,,,,,,085639,2022_Apr_14_1533,palt,2021.1.2,52.63447725124309,
9,szilva,kecske,,,,,,,,,1,0,1,0,0,8,8,8,,,,,,,,,,,,,565.1882435413427,None,566.2049135461566,None,566.2049135461566,None,,,,,,,,,,,,,,,,,,,,,,,,,,,,,,,,,,,,,,,,,,,,,,,,,,,,,,,,,,,085639,2022_Apr_14_1533,palt,2021.1.2,52.63447725124309,
6,menta,triatlon,,,,,,,,,1,0,1,0,0,9,9,5,,,,,,,,,,,,,572.1900066431263,None,573.2026329277433,None,573.2026329277433,None,,,,,,,,,,,,,,,,,,,,,,,,,,,,,,,,,,,,,,,,,,,,,,,,,,,,,,,,,,,085639,2022_Apr_14_1533,palt,2021.1.2,52.63447725124309,
4,mocsár,ananász,,,,,,,,,1,0,1,0,,,,,0,0,0,3,,,,,,,,,586.9261416154332,None,,,,,,,,,,,ananász,587.9275716281845,None,4,4.161887517315336,587.9275716281845,None,587.9275716281845,None,587.9275716281845,None, mocsár,592.1340050682193,None,592.1340050682193,None,down,3.7208564152824692,592.1340050682193,None,595.8948013843619,None,4,1.7788565247319639,595.8948013843619,None,,,,,,,582.9034623227199,None,579.1890167060774,None,u,2.9056798065430485,579.1890167060774,None,582.1329781212844,None,4,0.7466283671092242,582.1329781212844,None,,,,,,,085639,2022_Apr_14_1533,palt,2021.1.2,52.63447725124309,
8,szalvéta,puska,,,,,,,,,1,0,1,0,,,,,0,1,1,7,,,,,,,,,597.6987764341175,None,,,,,,,,,,,puska,598.7195209488855,None,4,2.081918145297095,598.7195209488855,None,598.7195209488855,None,598.7195209488855,None, szalvéta,600.8468723214464,None,600.8468723214464,None,down,3.2156246462254785,600.8468723214464,None,604.0918999327114,None,4,1.2068001179140992,604.0918999327114,None,,,,,,,,,,,,,,,,,,,,,,,,,,,085639,2022_Apr_14_1533,palt,2021.1.2,52.63447725124309,
3,fogó,limonádé,,,,,,,,,1,0,1,0,,,,,0,2,2,2,,,,,,,,,605.3262263960787,None,,,,,,,,,,,fogó,606.3421241691685,None,4,2.13729179603979,606.3421241691685,None,606.3421241691685,None,606.3421241691685,None, limonádé,608.5088326145196,None,608.5088326145196,None,down,3.9056194711010903,608.5088326145196,None,612.442322716408,None,4,1.0950734537327662,612.442322716408,None,,,,,,,,,,,,,,,,,,,,,,,,,,,085639,2022_Apr_14_1533,palt,2021.1.2,52.63447725124309,
9,szilva,kecske,,,,,,,,,1,0,1,0,,,,,0,3,3,8,,,,,,,,,613.570428593317,None,,,,,,,,,,,kecske,614.589905441273,None,4,2.2936054358724505,614.589905441273,None,614.589905441273,None,614.589905441273,None, szilva,616.9099207055406,None,616.9099207055406,None,down,2.8323706612573005,616.9099207055406,None,619.7724883340998,None,4,1.1978241289616562,619.7724883340998,None,,,,,,,,,,,,,,,,,,,,,,,,,,,085639,2022_Apr_14_1533,palt,2021.1.2,52.63447725124309,
10,málna,dominó,,,,,,,,,1,0,1,0,,,,,0,4,4,9,,,,,,,,,620.9933994867606,None,,,,,,,,,,,málna,622.0082846191945,None,4,2.2599037245381624,622.0082846191945,None,622.0082846191945,None,622.0082846191945,None, dominó,624.3142043991829,None,624.3142043991829,None,down,3.188424547726754,624.3142043991829,None,627.5358958697179,None,4,1.360424475511536,627.5358958697179,None,,,,,,,,,,,,,,,,,,,,,,,,,,,085639,2022_Apr_14_1533,palt,2021.1.2,52.63447725124309,
7,csavarhúzó,hering,,,,,,,,,1,0,1,0,,,,,0,5,5,6,,,,,,,,,628.9322790384758,None,,,,,,,,,,,csavarhúzó,629.9515139225987,None,4,8.729656373965554,629.9515139225987,None,629.9515139225987,None,629.9515139225987,None, ,638.705540848372,None,638.705540848372,None,down,1.9326338980463333,638.705540848372,None,640.6819419062813,None,4,1.1041968603385612,640.6819419062813,None,,,,,,,,,,,,,,,,,,,,,,,,,,,085639,2022_Apr_14_1533,palt,2021.1.2,52.63447725124309,
1,bagoly,kirakó,,,,,,,,,1,0,1,0,,,,,0,6,6,0,,,,,,,,,641.8194087995216,None,,,,,,,,,,,kirakó,642.8388682311052,None,4,3.8482494628988206,642.8388682311052,None,642.8388682311052,None,642.8388682311052,None, bagoly,646.7261348354514,None,646.7261348354514,None,down,2.4240500896121375,646.7261348354514,None,649.1827834927244,None,4,1.2942706810426898,649.1827834927244,None,,,,,,,,,,,,,,,,,,,,,,,,,,,085639,2022_Apr_14_1533,palt,2021.1.2,52.63447725124309,
5,karton,hentes,,,,,,,,,1,0,1,0,,,,,0,7,7,4,,,,,,,,,650.5081751445541,None,,,,,,,,,,,karton,651.5236238227226,None,4,2.166319685871713,651.5236238227226,None,651.5236238227226,None,651.5236238227226,None, hentes,653.7315581851872,None,653.7315581851872,None,down,3.1784800812019967,653.7315581851872,None,656.9372234365437,None,4,1.0847125481814146,656.9372234365437,None,,,,,,,,,,,,,,,,,,,,,,,,,,,085639,2022_Apr_14_1533,palt,2021.1.2,52.63447725124309,
6,menta,triatlon,,,,,,,,,1,0,1,0,,,,,0,8,8,5,,,,,,,,,658.0623486170662,None,,,,,,,,,,,menta,659.0845243885997,None,4,3.3135347998468205,659.0845243885997,None,659.0845243885997,None,659.0845243885997,None, triatlon,662.4305510804988,None,662.4305510804988,None,down,4.623385093233082,662.4305510804988,None,667.0726924173068,None,4,1.251199245103635,667.0726924173068,None,,,,,,,,,,,,,,,,,,,,,,,,,,,085639,2022_Apr_14_1533,palt,2021.1.2,52.63447725124309,
2,kötény,tisztás,,,,,,,,,1,0,1,0,,,,,0,9,9,1,,,,,,,,,668.3430469285813,None,,,,,,,,,,,kötény,669.3500492636231,None,4,11.302652334561571,669.3500492636231,None,669.3500492636231,None,669.3500492636231,None,,680.6978406123817,None,680.6978406123817,None,down,8.739838139270432,680.6978406123817,None,689.4873031167081,None,4,0.9523978060460649,689.4873031167081,None,,,,,,,,,,,,,,,,,,,,,,,,,,,085639,2022_Apr_14_1533,palt,2021.1.2,52.63447725124309,
,,,,,,,,,,,1,0,1,0,,,,,,,,,,,,,,,,,,,,,,,,,,,,,,,,,,,,,,,,,,,,,,,,,,,,,,,,,,,,,,,,,,,,,,,,,,,4,12.110881034634076,690.4928151035565,None,690.4928151035565,None,085639,2022_Apr_14_1533,palt,2021.1.2,52.63447725124309,
2,kötény,tisztás,,,,,,,,,2,0,2,0,0,0,0,1,,,,,,,,,,,,,706.6559606463416,None,707.6605620030896,None,707.6605620030896,None,,,,,,,,,,,,,,,,,,,,,,,,,,,,,,,,,,,,,,,702.6338032243075,None,,,,,,,,,,,,,,,,,,,085639,2022_Apr_14_1533,palt,2021.1.2,52.63447725124309,
3,fogó,limonádé,,,,,,,,,2,0,2,0,0,1,1,2,,,,,,,,,,,,,713.6354851531214,None,714.6509058406227,None,714.6509058406227,None,,,,,,,,,,,,,,,,,,,,,,,,,,,,,,,,,,,,,,,,,,,,,,,,,,,,,,,,,,,085639,2022_Apr_14_1533,palt,2021.1.2,52.63447725124309,
5,karton,hentes,,,,,,,,,2,0,2,0,0,2,2,4,,,,,,,,,,,,,720.6386950620799,None,721.648218113347,None,721.648218113347,None,,,,,,,,,,,,,,,,,,,,,,,,,,,,,,,,,,,,,,,,,,,,,,,,,,,,,,,,,,,085639,2022_Apr_14_1533,palt,2021.1.2,52.63447725124309,
1,bagoly,kirakó,,,,,,,,,2,0,2,0,0,3,3,0,,,,,,,,,,,,,727.6473494692473,None,728.6503671755199,None,728.6503671755199,None,,,,,,,,,,,,,,,,,,,,,,,,,,,,,,,,,,,,,,,,,,,,,,,,,,,,,,,,,,,085639,2022_Apr_14_1533,palt,2021.1.2,52.63447725124309,
10,málna,dominó,,,,,,,,,2,0,2,0,0,4,4,9,,,,,,,,,,,,,734.6346942609525,None,735.6471081274212,None,735.6471081274212,None,,,,,,,,,,,,,,,,,,,,,,,,,,,,,,,,,,,,,,,,,,,,,,,,,,,,,,,,,,,085639,2022_Apr_14_1533,palt,2021.1.2,52.63447725124309,
7,csavarhúzó,hering,,,,,,,,,2,0,2,0,0,5,5,6,,,,,,,,,,,,,741.6339061678154,None,742.6519231463317,None,742.6519231463317,None,,,,,,,,,,,,,,,,,,,,,,,,,,,,,,,,,,,,,,,,,,,,,,,,,,,,,,,,,,,085639,2022_Apr_14_1533,palt,2021.1.2,52.63447725124309,
8,szalvéta,puska,,,,,,,,,2,0,2,0,0,6,6,7,,,,,,,,,,,,,748.6369353813352,None,749.6490550346789,None,749.6490550346789,None,,,,,,,,,,,,,,,,,,,,,,,,,,,,,,,,,,,,,,,,,,,,,,,,,,,,,,,,,,,085639,2022_Apr_14_1533,palt,2021.1.2,52.63447725124309,
9,szilva,kecske,,,,,,,,,2,0,2,0,0,7,7,8,,,,,,,,,,,,,755.6385914965649,None,756.6495268331491,None,756.6495268331491,None,,,,,,,,,,,,,,,,,,,,,,,,,,,,,,,,,,,,,,,,,,,,,,,,,,,,,,,,,,,085639,2022_Apr_14_1533,palt,2021.1.2,52.63447725124309,
6,menta,triatlon,,,,,,,,,2,0,2,0,0,8,8,5,,,,,,,,,,,,,762.6454616534174,None,763.6535478497972,None,763.6535478497972,None,,,,,,,,,,,,,,,,,,,,,,,,,,,,,,,,,,,,,,,,,,,,,,,,,,,,,,,,,,,085639,2022_Apr_14_1533,palt,2021.1.2,52.63447725124309,
4,mocsár,ananász,,,,,,,,,2,0,2,0,0,9,9,3,,,,,,,,,,,,,769.6393503550207,None,770.6504396402743,None,770.6504396402743,None,,,,,,,,,,,,,,,,,,,,,,,,,,,,,,,,,,,,,,,,,,,,,,,,,,,,,,,,,,,085639,2022_Apr_14_1533,palt,2021.1.2,52.63447725124309,
2,kötény,tisztás,,,,,,,,,2,0,2,0,,,,,0,0,0,1,,,,,,,,,784.4310088836355,None,,,,,,,,,,,kötény,785.4079103526892,None,4,1.7380414486397058,785.4079103526892,None,785.4079103526892,None,785.4079103526892,None,tisztás ,787.1886350998539,None,787.1886350998539,None,down,3.9126550839282572,787.1886350998539,None,791.1502244230942,None,4,0.8486982467584312,791.1502244230942,None,,,,,,,780.3963352736318,None,776.6462161577074,None,u,2.6468033399432898,776.6462161577074,None,779.3309440696612,None,4,1.026019824843388,779.3309440696612,None,,,,,,,085639,2022_Apr_14_1533,palt,2021.1.2,52.63447725124309,
6,menta,triatlon,,,,,,,,,2,0,2,0,,,,,0,1,1,5,,,,,,,,,792.0247966321767,None,,,,,,,,,,,menta,793.0509514342993,None,4,0.9979871591203846,793.0509514342993,None,793.0509514342993,None,793.0509514342993,None,triatlon,794.0784115351853,None,794.0784115351853,None,down,5.550344969611615,794.0784115351853,None,799.6622974252678,None,4,1.1415096804266796,799.6622974252678,None,,,,,,,,,,,,,,,,,,,,,,,,,,,085639,2022_Apr_14_1533,palt,2021.1.2,52.63447725124309,
10,málna,dominó,,,,,,,,,2,0,2,0,,,,,0,2,2,9,,,,,,,,,800.8268586744671,None,,,,,,,,,,,málna,801.8417161272373,None,4,2.0213690178934485,801.8417161272373,None,801.8417161272373,None,801.8417161272373,None, dominó,803.8977158361813,None,803.8977158361813,None,down,3.203073936398141,803.8977158361813,None,807.1414272634429,None,4,0.6513334759511054,807.1414272634429,None,,,,,,,,,,,,,,,,,,,,,,,,,,,085639,2022_Apr_14_1533,palt,2021.1.2,52.63447725124309,
9,szilva,kecske,,,,,,,,,2,0,2,0,,,,,0,3,3,8,,,,,,,,,807.8260914187995,None,,,,,,,,,,,kecske,808.8436602354632,None,4,1.8262739802594297,808.8436602354632,None,808.8436602354632,None,808.8436602354632,None, szilva,810.6946403446491,None,810.6946403446491,None,down,3.1741343727335334,810.6946403446491,None,813.9019900129642,None,4,0.9597011963487603,813.9019900129642,None,,,,,,,,,,,,,,,,,,,,,,,,,,,085639,2022_Apr_14_1533,palt,2021.1.2,52.63447725124309,
8,szalvéta,puska,,,,,,,,,2,0,2,0,,,,,0,4,4,7,,,,,,,,,814.8887193207047,None,,,,,,,,,,,puska,815.9077473847428,None,4,1.6179919113055803,815.9077473847428,None,815.9077473847428,None,815.9077473847428,None, szalvéta,817.5619974895963,None,817.5619974895963,None,down,3.55467481672531,817.5619974895963,None,821.1639460762963,None,4,0.8037340188748203,821.1639460762963,None,,,,,,,,,,,,,,,,,,,,,,,,,,,085639,2022_Apr_14_1533,palt,2021.1.2,52.63447725124309,
3,fogó,limonádé,,,,,,,,,2,0,2,0,,,,,0,5,5,2,,,,,,,,,821.9981131171808,None,,,,,,,,,,,fogó,823.0198463249835,None,4,1.7677370717283338,823.0198463249835,None,823.0198463249835,None,823.0198463249835,None, limonádé,824.8315539555042,None,824.8315539555042,None,down,3.8049792930833064,824.8315539555042,None,828.6744901653146,None,4,0.6030489314580336,828.6744901653146,None,,,,,,,,,,,,,,,,,,,,,,,,,,,085639,2022_Apr_14_1533,palt,2021.1.2,52.63447725124309,
7,csavarhúzó,hering,,,,,,,,,2,0,2,0,,,,,0,6,6,6,,,,,,,,,829.2998859224608,None,,,,,,,,,,,csavarhúzó,830.3275435130927,None,4,3.4351169823785312,830.3275435130927,None,830.3275435130927,None,830.3275435130927,None, hering,833.8034699734999,None,833.8034699734999,None,down,3.2172266461420804,833.8034699734999,None,837.0414641489624,None,4,1.235036804631818,837.0414641489624,None,,,,,,,,,,,,,,,,,,,,,,,,,,,085639,2022_Apr_14_1533,palt,2021.1.2,52.63447725124309,
4,mocsár,ananász,,,,,,,,,2,0,2,0,,,,,0,7,7,3,,,,,,,,,838.3124624458724,None,,,,,,,,,,,ananász,839.3348786262213,None,4,2.196617730660364,839.3348786262213,None,839.3348786262213,None,839.3348786262213,None, mocsár,841.5548496029805,None,841.5548496029805,None,down,2.6336212848545983,841.5548496029805,None,844.2093052837881,None,4,0.816357193456497,844.2093052837881,None,,,,,,,,,,,,,,,,,,,,,,,,,,,085639,2022_Apr_14_1533,palt,2021.1.2,52.63447725124309,
1,bagoly,kirakó,,,,,,,,,2,0,2,0,,,,,0,8,8,0,,,,,,,,,845.0512347621843,None,,,,,,,,,,,kirakó,846.0690215951181,None,4,4.996422169147991,846.0690215951181,None,846.0690215951181,None,846.0690215951181,None, bagoly,851.0970293802675,None,851.0970293802675,None,down,2.451288753072731,851.0970293802675,None,853.5896043859539,None,4,0.8506700346479192,853.5896043859539,None,,,,,,,,,,,,,,,,,,,,,,,,,,,085639,2022_Apr_14_1533,palt,2021.1.2,52.63447725124309,
5,karton,hentes,,,,,,,,,2,0,2,0,,,,,0,9,9,4,,,,,,,,,854.462314592849,None,,,,,,,,,,,karton,855.4842001943616,None,4,2.356130705331452,855.4842001943616,None,855.4842001943616,None,855.4842001943616,None, hentes,857.8775354890968,None,857.8775354890968,None,down,2.934743151301518,857.8775354890968,None,860.8529904620373,None,4,0.7323584075784311,860.8529904620373,None,,,,,,,,,,,,,,,,,,,,,,,,,,,085639,2022_Apr_14_1533,palt,2021.1.2,52.63447725124309,
