itemno,wordA,wordB,enc_gyak.thisRepN,enc_gyak.thisTrialN,enc_gyak.thisN,enc_gyak.thisIndex,rec_gyak.thisRepN,rec_gyak.thisTrialN,rec_gyak.thisN,rec_gyak.thisIndex,repeat_task.thisRepN,repeat_task.thisTrialN,repeat_task.thisN,repeat_task.thisIndex,enc_loop.thisRepN,enc_loop.thisTrialN,enc_loop.thisN,enc_loop.thisIndex,test_loop.thisRepN,test_loop.thisTrialN,test_loop.thisN,test_loop.thisIndex,int.started,int.stopped,int_key.keys,int_key.rt,int_key.started,int_key.stopped,prepare_gyak_text.started,prepare_gyak_text.stopped,fix.started,fix.stopped,word1.started,word1.stopped,word2.started,word2.stopped,gykrec_inst.started,gykrec_inst.stopped,gyakrec_inst.keys,gyakrec_inst.rt,gyakrec_inst.started,gyakrec_inst.stopped,cueword,cueword1.started,cueword1.stopped,cue_resp.keys,cue_resp.started,cue_resp.stopped,cue_cont_text.started,cue_cont_text.stopped,cue_space.started,cue_space.stopped,test_ansbox.text,test_ansbox.started,test_ansbox.stopped,ans_text.started,ans_text.stopped,ans_continue.keys,ans_continue.rt,ans_continue.started,ans_continue.stopped,feedback_text.started,feedback_text.stopped,feedback_cont.keys,feedback_cont.rt,feedback_cont.started,feedback_cont.stopped,cue_resp.rt,main_prep.started,main_prep.stopped,main_prep_resp.keys,main_prep_resp.rt,main_prep_resp.started,main_prep_resp.stopped,preparation.started,preparation.stopped,break_text.started,break_text.stopped,key_resp.keys,key_resp.rt,key_resp.started,key_resp.stopped,test_instruction.started,test_instruction.stopped,test_i_key.keys,test_i_key.rt,test_i_key.started,test_i_key.stopped,rep_routine.keys,rep_routine.rt,rep_routine.started,rep_routine.stopped,encrep_textbox.started,encrep_textbox.stopped,Résztvevő kódja,date,expName,psychopyVersion,frameRate,
,,,,,,,,,,,,,,,,,,,,,,,17.53678368171677,None,4,97.82015764294192,17.53678368171677,None,,,,,,,,,,,,,,,,,,,,,,,,,,,,,,,,,,,,,,,,,,,,,,,,,,,,,,,,,,,,,,,,,,,288292,2022_Jun_17_1129,palt,2021.1.2,53.00444104083547,
2,lepke,szintetizátor,0,0,0,1,,,,,,,,,,,,,,,,,,,,,,,115.37638265779242,None,118.42668455187231,None,119.41040646703914,None,119.41040646703914,None,,,,,,,,,,,,,,,,,,,,,,,,,,,,,,,,,,,,,,,,,,,,,,,,,,,,,,,,,,,288292,2022_Jun_17_1129,palt,2021.1.2,53.00444104083547,
1,sapka,beton,0,1,1,0,,,,,,,,,,,,,,,,,,,,,,,,,125.39184559416026,None,126.39578884653747,None,126.39578884653747,None,,,,,,,,,,,,,,,,,,,,,,,,,,,,,,,,,,,,,,,,,,,,,,,,,,,,,,,,,,,288292,2022_Jun_17_1129,palt,2021.1.2,53.00444104083547,
4,kard,harcsa,0,2,2,3,,,,,,,,,,,,,,,,,,,,,,,,,132.39171808119863,None,133.3970002173446,None,133.3970002173446,None,,,,,,,,,,,,,,,,,,,,,,,,,,,,,,,,,,,,,,,,,,,,,,,,,,,,,,,,,,,288292,2022_Jun_17_1129,palt,2021.1.2,53.00444104083547,
3,majoránna,szikla,0,3,3,2,,,,,,,,,,,,,,,,,,,,,,,,,139.37872018292546,None,140.3998608556576,None,140.3998608556576,None,,,,,,,,,,,,,,,,,,,,,,,,,,,,,,,,,,,,,,,,,,,,,,,,,,,,,,,,,,,288292,2022_Jun_17_1129,palt,2021.1.2,53.00444104083547,
,,,,,,,,,,,,,,,,,,,,,,,,,,,,,,,,,,,,,146.39177966071293,None,4,3.5743212439119816,146.39177966071293,None,,,,,,,,,,,,,,,,,,,,,,,,,,,,,,,,,,,,,,,,,,,,,,,,,,,,,288292,2022_Jun_17_1129,palt,2021.1.2,53.00444104083547,
1,sapka,beton,,,,,0,0,0,0,,,,,,,,,,,,,,,,,,,,,150.00700262421742,None,,,,,,,,,,,beton,151.01853537047282,None,None,151.01853537047282,None,151.01853537047282,None,151.01853537047282,None, ,166.01017800159752,None,166.01017800159752,None,down,10.830632033757865,166.01017800159752,None,176.89764679968357,None,4,2.9841912244446576,176.89764679968357,None,,,,,,,,,,,,,,,,,,,,,,,,,,,,288292,2022_Jun_17_1129,palt,2021.1.2,53.00444104083547,
3,majoránna,szikla,,,,,0,1,1,2,,,,,,,,,,,,,,,,,,,,,179.9197279564105,None,,,,,,,,,,,szikla,180.94107327144593,None,4,180.94107327144593,None,180.94107327144593,None,180.94107327144593,None, ,186.9495793012902,None,186.9495793012902,None,down,1.6833054153248668,186.9495793012902,None,188.6563905943185,None,4,1.8313921340741217,188.6563905943185,None,5.970959760248661,,,,,,,,,,,,,,,,,,,,,,,,,,,288292,2022_Jun_17_1129,palt,2021.1.2,53.00444104083547,
2,lepke,szintetizátor,,,,,0,2,2,1,,,,,,,,,,,,,,,,,,,,,190.51586537901312,None,,,,,,,,,,,szintetizátor,191.55081723211333,None,4,191.55081723211333,None,191.55081723211333,None,191.55081723211333,None, ,206.21943660546094,None,206.21943660546094,None,down,1.485179603099823,206.21943660546094,None,207.72804340161383,None,4,1.4115385310724378,207.72804340161383,None,14.629810416605324,,,,,,,,,,,,,,,,,,,,,,,,,,,288292,2022_Jun_17_1129,palt,2021.1.2,53.00444104083547,
4,kard,harcsa,,,,,0,3,3,3,,,,,,,,,,,,,,,,,,,,,209.16105600446463,None,,,,,,,,,,,kard,210.16807044669986,None,4,210.16807044669986,None,210.16807044669986,None,210.16807044669986,None, ,220.92680833209306,None,220.92680833209306,None,down,2.2495781197212636,220.92680833209306,None,223.20430146995932,None,4,2.108099979814142,223.20430146995932,None,10.71831884747371,,,,,,,,,,,,,,,,,,,,,,,,,,,288292,2022_Jun_17_1129,palt,2021.1.2,53.00444104083547,
,,,,,,,,,,,,,,,,,,,,,,,,,,,,,,,,,,,,,,,,,,,,,,,,,,,,,,,,,,,,,,,,,,,,,225.3465583701618,None,4,43.37732656253502,225.3465583701618,None,,,,,,,,,,,,,,,,,,,,,288292,2022_Jun_17_1129,palt,2021.1.2,53.00444104083547,
9,szilva,kecske,,,,,,,,,0,0,0,0,0,0,0,8,,,,,,,,,,,,,272.7951909676194,None,273.76485289726406,None,273.76485289726406,None,,,,,,,,,,,,,,,,,,,,,,,,,,,,,,,,,,,,,,,268.7523722029291,None,,,,,,,,,,,,,,,,,,,288292,2022_Jun_17_1129,palt,2021.1.2,53.00444104083547,
10,málna,dominó,,,,,,,,,0,0,0,0,0,1,1,9,,,,,,,,,,,,,279.75810965243727,None,280.76947943121195,None,280.76947943121195,None,,,,,,,,,,,,,,,,,,,,,,,,,,,,,,,,,,,,,,,,,,,,,,,,,,,,,,,,,,,288292,2022_Jun_17_1129,palt,2021.1.2,53.00444104083547,
2,kötény,tisztás,,,,,,,,,0,0,0,0,0,2,2,1,,,,,,,,,,,,,286.756603136193,None,287.76610625348985,None,287.76610625348985,None,,,,,,,,,,,,,,,,,,,,,,,,,,,,,,,,,,,,,,,,,,,,,,,,,,,,,,,,,,,288292,2022_Jun_17_1129,palt,2021.1.2,53.00444104083547,
7,csavarhúzó,hering,,,,,,,,,0,0,0,0,0,3,3,6,,,,,,,,,,,,,293.75705627305433,None,294.77651937585324,None,294.77651937585324,None,,,,,,,,,,,,,,,,,,,,,,,,,,,,,,,,,,,,,,,,,,,,,,,,,,,,,,,,,,,288292,2022_Jun_17_1129,palt,2021.1.2,53.00444104083547,
8,szalvéta,puska,,,,,,,,,0,0,0,0,0,4,4,7,,,,,,,,,,,,,300.75641902023926,None,301.76592058269307,None,301.76592058269307,None,,,,,,,,,,,,,,,,,,,,,,,,,,,,,,,,,,,,,,,,,,,,,,,,,,,,,,,,,,,288292,2022_Jun_17_1129,palt,2021.1.2,53.00444104083547,
1,bagoly,kirakó,,,,,,,,,0,0,0,0,0,5,5,0,,,,,,,,,,,,,307.760253731627,None,308.76475399686024,None,308.76475399686024,None,,,,,,,,,,,,,,,,,,,,,,,,,,,,,,,,,,,,,,,,,,,,,,,,,,,,,,,,,,,288292,2022_Jun_17_1129,palt,2021.1.2,53.00444104083547,
5,karton,hentes,,,,,,,,,0,0,0,0,0,6,6,4,,,,,,,,,,,,,314.7563664605841,None,315.75875312509015,None,315.75875312509015,None,,,,,,,,,,,,,,,,,,,,,,,,,,,,,,,,,,,,,,,,,,,,,,,,,,,,,,,,,,,288292,2022_Jun_17_1129,palt,2021.1.2,53.00444104083547,
3,fogó,limonádé,,,,,,,,,0,0,0,0,0,7,7,2,,,,,,,,,,,,,321.7588722403161,None,322.77103477483615,None,322.77103477483615,None,,,,,,,,,,,,,,,,,,,,,,,,,,,,,,,,,,,,,,,,,,,,,,,,,,,,,,,,,,,288292,2022_Jun_17_1129,palt,2021.1.2,53.00444104083547,
6,menta,triatlon,,,,,,,,,0,0,0,0,0,8,8,5,,,,,,,,,,,,,328.758217882365,None,329.77484616078436,None,329.77484616078436,None,,,,,,,,,,,,,,,,,,,,,,,,,,,,,,,,,,,,,,,,,,,,,,,,,,,,,,,,,,,288292,2022_Jun_17_1129,palt,2021.1.2,53.00444104083547,
4,mocsár,ananász,,,,,,,,,0,0,0,0,0,9,9,3,,,,,,,,,,,,,335.7563677043654,None,336.7586452057585,None,336.7586452057585,None,,,,,,,,,,,,,,,,,,,,,,,,,,,,,,,,,,,,,,,,,,,,,,,,,,,,,,,,,,,288292,2022_Jun_17_1129,palt,2021.1.2,53.00444104083547,
4,mocsár,ananász,,,,,,,,,0,0,0,0,,,,,0,0,0,3,,,,,,,,,354.3447582637891,None,,,,,,,,,,,mocsár,355.34541479870677,None,4,355.34541479870677,None,355.34541479870677,None,355.34541479870677,None, ananász,369.9928869684227,None,369.9928869684227,None,down,3.2456896044313908,369.9928869684227,None,373.2882869322784,None,4,4.914389839395881,373.2882869322784,None,14.603304880671203,,,,,,,350.33085004938766,None,342.7660101526417,None,u,1.465509681031108,342.7660101526417,None,344.2827970441431,None,4,6.014147067908198,344.2827970441431,None,,,,,,,288292,2022_Jun_17_1129,palt,2021.1.2,53.00444104083547,
9,szilva,kecske,,,,,,,,,0,0,0,0,,,,,0,1,1,8,,,,,,,,,378.231064830441,None,,,,,,,,,,,szilva,379.24539725808427,None,None,379.24539725808427,None,379.24539725808427,None,379.24539725808427,None, ,394.2592852571979,None,394.2592852571979,None,down,2.6750475680455565,394.2592852571979,None,396.99198380531743,None,4,5.2264865026809275,396.99198380531743,None,,,,,,,,,,,,,,,,,,,,,,,,,,,,288292,2022_Jun_17_1129,palt,2021.1.2,53.00444104083547,
8,szalvéta,puska,,,,,,,,,0,0,0,0,,,,,0,2,2,7,,,,,,,,,402.2557774139568,None,,,,,,,,,,,szalvéta,403.2738826624118,None,None,403.2738826624118,None,403.2738826624118,None,403.2738826624118,None, ,418.25929738627747,None,418.25929738627747,None,down,1.3789052315987647,418.25929738627747,None,419.6678860196844,None,4,2.058205815497786,419.6678860196844,None,,,,,,,,,,,,,,,,,,,,,,,,,,,,288292,2022_Jun_17_1129,palt,2021.1.2,53.00444104083547,
5,karton,hentes,,,,,,,,,0,0,0,0,,,,,0,3,3,4,,,,,,,,,421.76919423788786,None,,,,,,,,,,,hentes,422.79048699280247,None,None,422.79048699280247,None,422.79048699280247,None,422.79048699280247,None, ,437.7665845816955,None,437.7665845816955,None,down,1.5833693584427238,437.7665845816955,None,439.370287861675,None,4,1.6216449388302863,439.370287861675,None,,,,,,,,,,,,,,,,,,,,,,,,,,,,288292,2022_Jun_17_1129,palt,2021.1.2,53.00444104083547,
2,kötény,tisztás,,,,,,,,,0,0,0,0,,,,,0,4,4,1,,,,,,,,,441.0256319185719,None,,,,,,,,,,,tisztás,442.03434414602816,None,None,442.03434414602816,None,442.03434414602816,None,442.03434414602816,None, ,457.03866558289155,None,457.03866558289155,None,down,1.3990985783748329,457.03866558289155,None,458.4714555046521,None,4,7.454145189374685,458.4714555046521,None,,,,,,,,,,,,,,,,,,,,,,,,,,,,288292,2022_Jun_17_1129,palt,2021.1.2,53.00444104083547,
6,menta,triatlon,,,,,,,,,0,0,0,0,,,,,0,5,5,5,,,,,,,,,465.95231678150594,None,,,,,,,,,,,menta,466.9712297138758,None,4,466.9712297138758,None,466.9712297138758,None,466.9712297138758,None, ,480.1468641515821,None,480.1468641515821,None,down,1.6506096040830016,480.1468641515821,None,481.8213743008673,None,4,1.1601459989324212,481.8213743008673,None,13.141203209757805,,,,,,,,,,,,,,,,,,,,,,,,,,,288292,2022_Jun_17_1129,palt,2021.1.2,53.00444104083547,
1,bagoly,kirakó,,,,,,,,,0,0,0,0,,,,,0,6,6,0,,,,,,,,,483.00834461767226,None,,,,,,,,,,,kirakó,484.0243875812739,None,4,484.0243875812739,None,484.0243875812739,None,484.0243875812739,None, ,489.9351638350636,None,489.9351638350636,None,down,1.622234296053648,489.9351638350636,None,491.58796696877107,None,4,0.517383090686053,491.58796696877107,None,5.8680159584619105,,,,,,,,,,,,,,,,,,,,,,,,,,,288292,2022_Jun_17_1129,palt,2021.1.2,53.00444104083547,
10,málna,dominó,,,,,,,,,0,0,0,0,,,,,0,7,7,9,,,,,,,,,492.12439174903557,None,,,,,,,,,,,dominó,493.13177628908306,None,4,493.13177628908306,None,493.13177628908306,None,493.13177628908306,None, ,498.142250679899,None,498.142250679899,None,down,1.9269013232551515,498.142250679899,None,500.10928926896304,None,4,1.2749662091955543,500.10928926896304,None,4.984462732914835,,,,,,,,,,,,,,,,,,,,,,,,,,,288292,2022_Jun_17_1129,palt,2021.1.2,53.00444104083547,
7,csavarhúzó,hering,,,,,,,,,0,0,0,0,,,,,0,8,8,6,,,,,,,,,501.41295298887417,None,,,,,,,,,,,csavarhúzó,502.4269884051755,None,4,502.4269884051755,None,502.4269884051755,None,502.4269884051755,None, ,512.7552350182086,None,512.7552350182086,None,down,1.6497583789750934,512.7552350182086,None,514.4434269689955,None,4,1.432716524694115,514.4434269689955,None,10.288408535998315,,,,,,,,,,,,,,,,,,,,,,,,,,,288292,2022_Jun_17_1129,palt,2021.1.2,53.00444104083547,
3,fogó,limonádé,,,,,,,,,0,0,0,0,,,,,0,9,9,2,,,,,,,,,515.9203617880121,None,,,,,,,,,,,limonádé,516.9377355487086,None,4,516.9377355487086,None,516.9377355487086,None,516.9377355487086,None, ,521.5797047675587,None,521.5797047675587,None,down,1.801835933700204,521.5797047675587,None,523.4162397063337,None,4,1.555716518778354,523.4162397063337,None,4.612309454008937,,,,,,,,,,,,,,,,,,,,,,,,,,,288292,2022_Jun_17_1129,palt,2021.1.2,53.00444104083547,
,,,,,,,,,,,0,0,0,0,,,,,,,,,,,,,,,,,,,,,,,,,,,,,,,,,,,,,,,,,,,,,,,,,,,,,,,,,,,,,,,,,,,,,,,,,,,4,36.8531569968909,525.0303464676253,None,525.0303464676253,None,288292,2022_Jun_17_1129,palt,2021.1.2,53.00444104083547,
2,kötény,tisztás,,,,,,,,,1,0,1,0,0,0,0,1,,,,,,,,,,,,,565.939451682847,None,566.9303367021494,None,566.9303367021494,None,,,,,,,,,,,,,,,,,,,,,,,,,,,,,,,,,,,,,,,561.9418458119035,None,,,,,,,,,,,,,,,,,,,288292,2022_Jun_17_1129,palt,2021.1.2,53.00444104083547,
7,csavarhúzó,hering,,,,,,,,,1,0,1,0,0,1,1,6,,,,,,,,,,,,,572.9369082711637,None,573.9402341754176,None,573.9402341754176,None,,,,,,,,,,,,,,,,,,,,,,,,,,,,,,,,,,,,,,,,,,,,,,,,,,,,,,,,,,,288292,2022_Jun_17_1129,palt,2021.1.2,53.00444104083547,
8,szalvéta,puska,,,,,,,,,1,0,1,0,0,2,2,7,,,,,,,,,,,,,579.9230485735461,None,580.9340855753981,None,580.9340855753981,None,,,,,,,,,,,,,,,,,,,,,,,,,,,,,,,,,,,,,,,,,,,,,,,,,,,,,,,,,,,288292,2022_Jun_17_1129,palt,2021.1.2,53.00444104083547,
1,bagoly,kirakó,,,,,,,,,1,0,1,0,0,3,3,0,,,,,,,,,,,,,586.9367253994569,None,587.9372310959734,None,587.9372310959734,None,,,,,,,,,,,,,,,,,,,,,,,,,,,,,,,,,,,,,,,,,,,,,,,,,,,,,,,,,,,288292,2022_Jun_17_1129,palt,2021.1.2,53.00444104083547,
6,menta,triatlon,,,,,,,,,1,0,1,0,0,4,4,5,,,,,,,,,,,,,593.9237408745103,None,594.9421490430832,None,594.9421490430832,None,,,,,,,,,,,,,,,,,,,,,,,,,,,,,,,,,,,,,,,,,,,,,,,,,,,,,,,,,,,288292,2022_Jun_17_1129,palt,2021.1.2,53.00444104083547,
3,fogó,limonádé,,,,,,,,,1,0,1,0,0,5,5,2,,,,,,,,,,,,,600.9364722399041,None,601.9377529649064,None,601.9377529649064,None,,,,,,,,,,,,,,,,,,,,,,,,,,,,,,,,,,,,,,,,,,,,,,,,,,,,,,,,,,,288292,2022_Jun_17_1129,palt,2021.1.2,53.00444104083547,
10,málna,dominó,,,,,,,,,1,0,1,0,0,6,6,9,,,,,,,,,,,,,607.9214369375259,None,608.9407631978393,None,608.9407631978393,None,,,,,,,,,,,,,,,,,,,,,,,,,,,,,,,,,,,,,,,,,,,,,,,,,,,,,,,,,,,288292,2022_Jun_17_1129,palt,2021.1.2,53.00444104083547,
4,mocsár,ananász,,,,,,,,,1,0,1,0,0,7,7,3,,,,,,,,,,,,,614.9362890571356,None,615.9387223725207,None,615.9387223725207,None,,,,,,,,,,,,,,,,,,,,,,,,,,,,,,,,,,,,,,,,,,,,,,,,,,,,,,,,,,,288292,2022_Jun_17_1129,palt,2021.1.2,53.00444104083547,
9,szilva,kecske,,,,,,,,,1,0,1,0,0,8,8,8,,,,,,,,,,,,,621.9321601334959,None,622.9364772159606,None,622.9364772159606,None,,,,,,,,,,,,,,,,,,,,,,,,,,,,,,,,,,,,,,,,,,,,,,,,,,,,,,,,,,,288292,2022_Jun_17_1129,palt,2021.1.2,53.00444104083547,
5,karton,hentes,,,,,,,,,1,0,1,0,0,9,9,4,,,,,,,,,,,,,628.936236185953,None,629.9427038789727,None,629.9427038789727,None,,,,,,,,,,,,,,,,,,,,,,,,,,,,,,,,,,,,,,,,,,,,,,,,,,,,,,,,,,,288292,2022_Jun_17_1129,palt,2021.1.2,53.00444104083547,
5,karton,hentes,,,,,,,,,1,0,1,0,,,,,0,0,0,4,,,,,,,,,642.8954778397456,None,,,,,,,,,,,hentes,643.8869596803561,None,4,643.8869596803561,None,643.8869596803561,None,643.8869596803561,None, kötény,651.3141685891896,None,651.3141685891896,None,down,3.681341719813645,651.3141685891896,None,655.0180529993959,None,4,5.203285100404173,655.0180529993959,None,7.382462525274605,,,,,,,638.8751986552961,None,635.9206074830145,None,u,1.4271473297849298,635.9206074830145,None,637.3749199938029,None,4,1.4686471153981984,637.3749199938029,None,,,,,,,288292,2022_Jun_17_1129,palt,2021.1.2,53.00444104083547,
7,csavarhúzó,hering,,,,,,,,,1,0,1,0,,,,,0,1,1,6,,,,,,,,,660.2456028335728,None,,,,,,,,,,,csavarhúzó,661.2586881243624,None,None,661.2586881243624,None,661.2586881243624,None,661.2586881243624,None, himpellér,676.2524434234947,None,676.2524434234947,None,down,3.3187749073840678,676.2524434234947,None,679.6159706236795,None,4,6.425252676941454,679.6159706236795,None,,,,,,,,,,,,,,,,,,,,,,,,,,,,288292,2022_Jun_17_1129,palt,2021.1.2,53.00444104083547,
1,bagoly,kirakó,,,,,,,,,1,0,1,0,,,,,0,2,2,0,,,,,,,,,686.0739822466858,None,,,,,,,,,,,kirakó,687.0805168058723,None,None,687.0805168058723,None,687.0805168058723,None,687.0805168058723,None, ,702.0970163270831,None,702.0970163270831,None,down,1.7460385533049703,702.0970163270831,None,703.8676981097087,None,4,1.2233033501543105,703.8676981097087,None,,,,,,,,,,,,,,,,,,,,,,,,,,,,288292,2022_Jun_17_1129,palt,2021.1.2,53.00444104083547,
3,fogó,limonádé,,,,,,,,,1,0,1,0,,,,,0,3,3,2,,,,,,,,,705.1283328244463,None,,,,,,,,,,,limonádé,706.1512247752398,None,4,706.1512247752398,None,706.1512247752398,None,706.1512247752398,None, fogó,714.875085759908,None,714.875085759908,None,down,2.1837846762500703,714.875085759908,None,717.0964300800115,None,4,4.858295758720487,717.0964300800115,None,8.679513623006642,,,,,,,,,,,,,,,,,,,,,,,,,,,288292,2022_Jun_17_1129,palt,2021.1.2,53.00444104083547,
8,szalvéta,puska,,,,,,,,,1,0,1,0,,,,,0,4,4,7,,,,,,,,,721.9726724736392,None,,,,,,,,,,,szalvéta,722.978576311376,None,4,722.978576311376,None,722.978576311376,None,722.978576311376,None, ,734.3231684979983,None,734.3231684979983,None,down,1.4715189500711858,734.3231684979983,None,735.8300722218119,None,4,1.433495907112956,735.8300722218119,None,11.300911622587591,,,,,,,,,,,,,,,,,,,,,,,,,,,288292,2022_Jun_17_1129,palt,2021.1.2,53.00444104083547,
10,málna,dominó,,,,,,,,,1,0,1,0,,,,,0,5,5,9,,,,,,,,,737.2934225839563,None,,,,,,,,,,,dominó,738.3168326718733,None,4,738.3168326718733,None,738.3168326718733,None,738.3168326718733,None, ,745.085343006067,None,745.085343006067,None,down,1.413224808871746,745.085343006067,None,746.5282695656642,None,4,1.361257784999907,746.5282695656642,None,6.731671293266118,,,,,,,,,,,,,,,,,,,,,,,,,,,288292,2022_Jun_17_1129,palt,2021.1.2,53.00444104083547,
6,menta,triatlon,,,,,,,,,1,0,1,0,,,,,0,6,6,5,,,,,,,,,747.921944189351,None,,,,,,,,,,,menta,748.928376427386,None,4,748.928376427386,None,748.928376427386,None,748.928376427386,None, ,759.116363113746,None,759.116363113746,None,down,1.5739862900227308,759.116363113746,None,760.7183023644611,None,4,0.7339920247904956,760.7183023644611,None,10.145974672865123,,,,,,,,,,,,,,,,,,,,,,,,,,,288292,2022_Jun_17_1129,palt,2021.1.2,53.00444104083547,
2,kötény,tisztás,,,,,,,,,1,0,1,0,,,,,0,7,7,1,,,,,,,,,761.4715833282098,None,,,,,,,,,,,tisztás,762.47649754351,None,4,762.47649754351,None,762.47649754351,None,762.47649754351,None, ,767.1750385491177,None,767.1750385491177,None,down,2.411217261105776,767.1750385491177,None,769.6170044094324,None,4,4.809397126547992,769.6170044094324,None,4.66778618702665,,,,,,,,,,,,,,,,,,,,,,,,,,,288292,2022_Jun_17_1129,palt,2021.1.2,53.00444104083547,
4,mocsár,ananász,,,,,,,,,1,0,1,0,,,,,0,8,8,3,,,,,,,,,774.4602835262194,None,,,,,,,,,,,mocsár,775.4703787998296,None,None,775.4703787998296,None,775.4703787998296,None,775.4703787998296,None, ,790.4790919604711,None,790.4790919604711,None,down,1.4268826628103852,790.4790919604711,None,791.9336632285267,None,4,6.057215570472181,791.9336632285267,None,,,,,,,,,,,,,,,,,,,,,,,,,,,,288292,2022_Jun_17_1129,palt,2021.1.2,53.00444104083547,
9,szilva,kecske,,,,,,,,,1,0,1,0,,,,,0,9,9,8,,,,,,,,,798.0256228996441,None,,,,,,,,,,,szilva,799.0404815501533,None,None,799.0404815501533,None,799.0404815501533,None,799.0404815501533,None, ,814.0459117251448,None,814.0459117251448,None,down,1.555810131598264,814.0459117251448,None,815.6336886687204,None,4,2.14500837540254,815.6336886687204,None,,,,,,,,,,,,,,,,,,,,,,,,,,,,288292,2022_Jun_17_1129,palt,2021.1.2,53.00444104083547,
,,,,,,,,,,,1,0,1,0,,,,,,,,,,,,,,,,,,,,,,,,,,,,,,,,,,,,,,,,,,,,,,,,,,,,,,,,,,,,,,,,,,,,,,,,,,,4,4.418008712120354,817.805687439628,None,817.805687439628,None,288292,2022_Jun_17_1129,palt,2021.1.2,53.00444104083547,
3,fogó,limonádé,,,,,,,,,2,0,2,0,0,0,0,2,,,,,,,,,,,,,826.2686910293996,None,827.2614038339816,None,827.2614038339816,None,,,,,,,,,,,,,,,,,,,,,,,,,,,,,,,,,,,,,,,822.2570391674526,None,,,,,,,,,,,,,,,,,,,288292,2022_Jun_17_1129,palt,2021.1.2,53.00444104083547,
10,málna,dominó,,,,,,,,,2,0,2,0,0,1,1,9,,,,,,,,,,,,,833.2740145288408,None,834.267290877644,None,834.267290877644,None,,,,,,,,,,,,,,,,,,,,,,,,,,,,,,,,,,,,,,,,,,,,,,,,,,,,,,,,,,,288292,2022_Jun_17_1129,palt,2021.1.2,53.00444104083547,
6,menta,triatlon,,,,,,,,,2,0,2,0,0,2,2,5,,,,,,,,,,,,,840.2606966048479,None,841.2723130118102,None,841.2723130118102,None,,,,,,,,,,,,,,,,,,,,,,,,,,,,,,,,,,,,,,,,,,,,,,,,,,,,,,,,,,,288292,2022_Jun_17_1129,palt,2021.1.2,53.00444104083547,
7,csavarhúzó,hering,,,,,,,,,2,0,2,0,0,3,3,6,,,,,,,,,,,,,847.2543402523734,None,848.2663870924152,None,848.2663870924152,None,,,,,,,,,,,,,,,,,,,,,,,,,,,,,,,,,,,,,,,,,,,,,,,,,,,,,,,,,,,288292,2022_Jun_17_1129,palt,2021.1.2,53.00444104083547,
1,bagoly,kirakó,,,,,,,,,2,0,2,0,0,4,4,0,,,,,,,,,,,,,854.2502651331015,None,855.2690511750989,None,855.2690511750989,None,,,,,,,,,,,,,,,,,,,,,,,,,,,,,,,,,,,,,,,,,,,,,,,,,,,,,,,,,,,288292,2022_Jun_17_1129,palt,2021.1.2,53.00444104083547,
8,szalvéta,puska,,,,,,,,,2,0,2,0,0,5,5,7,,,,,,,,,,,,,861.253889604006,None,862.2627595118247,None,862.2627595118247,None,,,,,,,,,,,,,,,,,,,,,,,,,,,,,,,,,,,,,,,,,,,,,,,,,,,,,,,,,,,288292,2022_Jun_17_1129,palt,2021.1.2,53.00444104083547,
4,mocsár,ananász,,,,,,,,,2,0,2,0,0,6,6,3,,,,,,,,,,,,,868.2534168739803,None,869.2626208029687,None,869.2626208029687,None,,,,,,,,,,,,,,,,,,,,,,,,,,,,,,,,,,,,,,,,,,,,,,,,,,,,,,,,,,,288292,2022_Jun_17_1129,palt,2021.1.2,53.00444104083547,
5,karton,hentes,,,,,,,,,2,0,2,0,0,7,7,4,,,,,,,,,,,,,875.2507829591632,None,876.257739554625,None,876.257739554625,None,,,,,,,,,,,,,,,,,,,,,,,,,,,,,,,,,,,,,,,,,,,,,,,,,,,,,,,,,,,288292,2022_Jun_17_1129,palt,2021.1.2,53.00444104083547,
9,szilva,kecske,,,,,,,,,2,0,2,0,0,8,8,8,,,,,,,,,,,,,882.252081411425,None,883.2650068453513,None,883.2650068453513,None,,,,,,,,,,,,,,,,,,,,,,,,,,,,,,,,,,,,,,,,,,,,,,,,,,,,,,,,,,,288292,2022_Jun_17_1129,palt,2021.1.2,53.00444104083547,
2,kötény,tisztás,,,,,,,,,2,0,2,0,0,9,9,1,,,,,,,,,,,,,889.2498409203254,None,890.2556968634017,None,890.2556968634017,None,,,,,,,,,,,,,,,,,,,,,,,,,,,,,,,,,,,,,,,,,,,,,,,,,,,,,,,,,,,288292,2022_Jun_17_1129,palt,2021.1.2,53.00444104083547,
9,szilva,kecske,,,,,,,,,2,0,2,0,,,,,0,0,0,8,,,,,,,,,904.06656162953,None,,,,,,,,,,,szilva,905.0534399505705,None,4,905.0534399505705,None,905.0534399505705,None,905.0534399505705,None, kötény,913.826165357139,None,913.826165357139,None,down,3.502391640562564,913.826165357139,None,917.3511743298732,None,4,3.8133276272565126,917.3511743298732,None,8.737159937620163,,,,,,,900.0488236797974,None,896.254048217088,None,u,1.4110574037767947,896.254048217088,None,897.6978309778497,None,4,2.3079036725685,897.6978309778497,None,,,,,,,288292,2022_Jun_17_1129,palt,2021.1.2,53.00444104083547,
2,kötény,tisztás,,,,,,,,,2,0,2,0,,,,,0,1,1,1,,,,,,,,,921.1926054451615,None,,,,,,,,,,,tisztás,922.2059964556247,None,4,922.2059964556247,None,922.2059964556247,None,922.2059964556247,None, kötény,931.3687570872717,None,931.3687570872717,None,down,2.6156453108415008,931.3687570872717,None,934.0189347029664,None,4,1.8764184233732522,934.0189347029664,None,9.129472041502595,,,,,,,,,,,,,,,,,,,,,,,,,,,288292,2022_Jun_17_1129,palt,2021.1.2,53.00444104083547,
3,fogó,limonádé,,,,,,,,,2,0,2,0,,,,,0,2,2,2,,,,,,,,,935.9205539897084,None,,,,,,,,,,,limonádé,936.9353983341716,None,4,936.9353983341716,None,936.9353983341716,None,936.9353983341716,None, ,951.3593578459695,None,951.3593578459695,None,down,2.2088185297325253,951.3593578459695,None,953.6005450082012,None,4,1.0714183081872761,953.6005450082012,None,14.376745602115989,,,,,,,,,,,,,,,,,,,,,,,,,,,288292,2022_Jun_17_1129,palt,2021.1.2,53.00444104083547,
10,málna,dominó,,,,,,,,,2,0,2,0,,,,,0,3,3,9,,,,,,,,,954.7034838334657,None,,,,,,,,,,,dominó,955.7102650213055,None,None,955.7102650213055,None,955.7102650213055,None,955.7102650213055,None, ,970.7199370148592,None,970.7199370148592,None,down,3.295995541382581,970.7199370148592,None,974.0419516782276,None,4,2.296789230313152,974.0419516782276,None,,,,,,,,,,,,,,,,,,,,,,,,,,,,288292,2022_Jun_17_1129,palt,2021.1.2,53.00444104083547,
7,csavarhúzó,hering,,,,,,,,,2,0,2,0,,,,,0,4,4,6,,,,,,,,,976.3695059907623,None,,,,,,,,,,,csavarhúzó,977.3773044808768,None,4,977.3773044808768,None,977.3773044808768,None,977.3773044808768,None, ,986.1580386185087,None,986.1580386185087,None,down,2.449629995506257,986.1580386185087,None,988.6386560657993,None,4,1.4712707665748894,988.6386560657993,None,8.737489293795079,,,,,,,,,,,,,,,,,,,,,,,,,,,288292,2022_Jun_17_1129,palt,2021.1.2,53.00444104083547,
5,karton,hentes,,,,,,,,,2,0,2,0,,,,,0,5,5,4,,,,,,,,,990.1378499367274,None,,,,,,,,,,,hentes,991.153369476553,None,None,991.153369476553,None,991.153369476553,None,991.153369476553,None, ,1006.166372039821,None,1006.166372039821,None,down,1.5291385180316865,1006.166372039821,None,1007.7361874198541,None,4,2.5874681142158806,1007.7361874198541,None,,,,,,,,,,,,,,,,,,,,,,,,,,,,288292,2022_Jun_17_1129,palt,2021.1.2,53.00444104083547,
1,bagoly,kirakó,,,,,,,,,2,0,2,0,,,,,0,6,6,0,,,,,,,,,1010.3487419472076,None,,,,,,,,,,,kirakó,1011.3634087070823,None,4,1011.3634087070823,None,1011.3634087070823,None,1011.3634087070823,None, ,1015.3279660856351,None,1015.3279660856351,None,down,1.4554542158730328,1015.3279660856351,None,1016.8070533806458,None,4,1.3553349757567048,1016.8070533806458,None,3.9381454554386437,,,,,,,,,,,,,,,,,,,,,,,,,,,288292,2022_Jun_17_1129,palt,2021.1.2,53.00444104083547,
6,menta,triatlon,,,,,,,,,2,0,2,0,,,,,0,7,7,5,,,,,,,,,1018.1856158832088,None,,,,,,,,,,,menta,1019.2021079403348,None,None,1019.2021079403348,None,1019.2021079403348,None,1019.2021079403348,None, ,1034.1999125448056,None,1034.1999125448056,None,down,1.5272000143304467,1034.1999125448056,None,1035.7675483911298,None,4,2.489870204590261,1035.7675483911298,None,,,,,,,,,,,,,,,,,,,,,,,,,,,,288292,2022_Jun_17_1129,palt,2021.1.2,53.00444104083547,
8,szalvéta,puska,,,,,,,,,2,0,2,0,,,,,0,8,8,7,,,,,,,,,1038.2871408727951,None,,,,,,,,,,,szalvéta,1039.2964794677682,None,None,1039.2964794677682,None,1039.2964794677682,None,1039.2964794677682,None, ,1054.307905849535,None,1054.307905849535,None,down,1.9792054779827595,1054.307905849535,None,1056.3145333998837,None,4,1.7446611053310335,1056.3145333998837,None,,,,,,,,,,,,,,,,,,,,,,,,,,,,288292,2022_Jun_17_1129,palt,2021.1.2,53.00444104083547,
4,mocsár,ananász,,,,,,,,,2,0,2,0,,,,,0,9,9,3,,,,,,,,,1058.088347329758,None,,,,,,,,,,,mocsár,1059.1044621360488,None,4,1059.1044621360488,None,1059.1044621360488,None,1059.1044621360488,None, ,1064.189284516964,None,1064.189284516964,None,down,2.0495974640361965,1064.189284516964,None,1066.2763915522955,None,4,1.9893613974563777,1066.2763915522955,None,5.050406392198056,,,,,,,,,,,,,,,,,,,,,,,,,,,288292,2022_Jun_17_1129,palt,2021.1.2,53.00444104083547,
,,,,,,,,,,,2,0,2,0,,,,,,,,,,,,,,,,,,,,,,,,,,,,,,,,,,,,,,,,,,,,,,,,,,,,,,,,,,,,,,,,,,,,,,,,,,,4,49.111529449466616,1068.285776487086,None,1068.285776487086,None,288292,2022_Jun_17_1129,palt,2021.1.2,53.00444104083547,
7,csavarhúzó,hering,,,,,,,,,3,0,3,0,0,0,0,6,,,,,,,,,,,,,1121.4550629695877,None,1122.4778855657205,None,1122.4778855657205,None,,,,,,,,,,,,,,,,,,,,,,,,,,,,,,,,,,,,,,,1117.4464085893705,None,,,,,,,,,,,,,,,,,,,288292,2022_Jun_17_1129,palt,2021.1.2,53.00444104083547,
6,menta,triatlon,,,,,,,,,3,0,3,0,0,1,1,5,,,,,,,,,,,,,1128.447055793833,None,1129.4517983333208,None,1129.4517983333208,None,,,,,,,,,,,,,,,,,,,,,,,,,,,,,,,,,,,,,,,,,,,,,,,,,,,,,,,,,,,288292,2022_Jun_17_1129,palt,2021.1.2,53.00444104083547,
5,karton,hentes,,,,,,,,,3,0,3,0,0,2,2,4,,,,,,,,,,,,,1135.4471795745194,None,1136.4525649645366,None,1136.4525649645366,None,,,,,,,,,,,,,,,,,,,,,,,,,,,,,,,,,,,,,,,,,,,,,,,,,,,,,,,,,,,288292,2022_Jun_17_1129,palt,2021.1.2,53.00444104083547,
4,mocsár,ananász,,,,,,,,,3,0,3,0,0,3,3,3,,,,,,,,,,,,,1142.4471043110825,None,1143.4524940550327,None,1143.4524940550327,None,,,,,,,,,,,,,,,,,,,,,,,,,,,,,,,,,,,,,,,,,,,,,,,,,,,,,,,,,,,288292,2022_Jun_17_1129,palt,2021.1.2,53.00444104083547,
3,fogó,limonádé,,,,,,,,,3,0,3,0,0,4,4,2,,,,,,,,,,,,,1149.4491131026298,None,1150.4551130416803,None,1150.4551130416803,None,,,,,,,,,,,,,,,,,,,,,,,,,,,,,,,,,,,,,,,,,,,,,,,,,,,,,,,,,,,288292,2022_Jun_17_1129,palt,2021.1.2,53.00444104083547,
2,kötény,tisztás,,,,,,,,,3,0,3,0,0,5,5,1,,,,,,,,,,,,,1156.4466676576994,None,1157.4520987658761,None,1157.4520987658761,None,,,,,,,,,,,,,,,,,,,,,,,,,,,,,,,,,,,,,,,,,,,,,,,,,,,,,,,,,,,288292,2022_Jun_17_1129,palt,2021.1.2,53.00444104083547,
1,bagoly,kirakó,,,,,,,,,3,0,3,0,0,6,6,0,,,,,,,,,,,,,1163.4467886392958,None,1164.4515936910175,None,1164.4515936910175,None,,,,,,,,,,,,,,,,,,,,,,,,,,,,,,,,,,,,,,,,,,,,,,,,,,,,,,,,,,,288292,2022_Jun_17_1129,palt,2021.1.2,53.00444104083547,
9,szilva,kecske,,,,,,,,,3,0,3,0,0,7,7,8,,,,,,,,,,,,,1170.4563754172996,None,1171.4626207407564,None,1171.4626207407564,None,,,,,,,,,,,,,,,,,,,,,,,,,,,,,,,,,,,,,,,,,,,,,,,,,,,,,,,,,,,288292,2022_Jun_17_1129,palt,2021.1.2,53.00444104083547,
8,szalvéta,puska,,,,,,,,,3,0,3,0,0,8,8,7,,,,,,,,,,,,,1177.4509632806294,None,1178.468370319344,None,1178.468370319344,None,,,,,,,,,,,,,,,,,,,,,,,,,,,,,,,,,,,,,,,,,,,,,,,,,,,,,,,,,,,288292,2022_Jun_17_1129,palt,2021.1.2,53.00444104083547,
10,málna,dominó,,,,,,,,,3,0,3,0,0,9,9,9,,,,,,,,,,,,,1184.4464533743449,None,1185.4520210139453,None,1185.4520210139453,None,,,,,,,,,,,,,,,,,,,,,,,,,,,,,,,,,,,,,,,,,,,,,,,,,,,,,,,,,,,288292,2022_Jun_17_1129,palt,2021.1.2,53.00444104083547,
2,kötény,tisztás,,,,,,,,,3,0,3,0,,,,,0,0,0,1,,,,,,,,,1198.2493955586106,None,,,,,,,,,,,tisztás,1199.2392063611187,None,4,1199.2392063611187,None,1199.2392063611187,None,1199.2392063611187,None,,1208.9136620839126,None,1208.9136620839126,None,down,2.2195392376743257,1208.9136620839126,None,1211.1530761974864,None,4,2.195022588595748,1211.1530761974864,None,9.631914065219462,,,,,,,1194.2356073926203,None,1191.446176267229,None,u,1.4954216722398996,1191.446176267229,None,1192.9691338404082,None,4,1.2353004291653633,1192.9691338404082,None,,,,,,,288292,2022_Jun_17_1129,palt,2021.1.2,53.00444104083547,
1,bagoly,kirakó,,,,,,,,,3,0,3,0,,,,,0,1,1,0,,,,,,,,,1213.3917367416434,None,,,,,,,,,,,kirakó,1214.4087848784402,None,4,1214.4087848784402,None,1214.4087848784402,None,1214.4087848784402,None, ,1223.5014004628174,None,1223.5014004628174,None,down,1.1839743903838098,1223.5014004628174,None,1224.717840208672,None,4,1.696280610281974,1224.717840208672,None,9.06529832072556,,,,,,,,,,,,,,,,,,,,,,,,,,,288292,2022_Jun_17_1129,palt,2021.1.2,53.00444104083547,
5,karton,hentes,,,,,,,,,3,0,3,0,,,,,0,2,2,4,,,,,,,,,1226.4520443398505,None,,,,,,,,,,,hentes,1227.4783903295174,None,None,1227.4783903295174,None,1227.4783903295174,None,1227.4783903295174,None, ,1242.4631706001237,None,1242.4631706001237,None,down,2.845686307642609,1242.4631706001237,None,1245.3514131829143,None,4,2.486647865269333,1245.3514131829143,None,,,,,,,,,,,,,,,,,,,,,,,,,,,,288292,2022_Jun_17_1129,palt,2021.1.2,53.00444104083547,
4,mocsár,ananász,,,,,,,,,3,0,3,0,,,,,0,3,3,3,,,,,,,,,1247.8717831810936,None,,,,,,,,,,,mocsár,1248.8806565101258,None,4,1248.8806565101258,None,1248.8806565101258,None,1248.8806565101258,None, ananász,1254.6404742104933,None,1254.6404742104933,None,down,2.6845674798823893,1254.6404742104933,None,1257.3640419160947,None,4,1.4146790755912662,1257.3640419160947,None,5.72610614169389,,,,,,,,,,,,,,,,,,,,,,,,,,,288292,2022_Jun_17_1129,palt,2021.1.2,53.00444104083547,
8,szalvéta,puska,,,,,,,,,3,0,3,0,,,,,0,4,4,7,,,,,,,,,1258.8054930604994,None,,,,,,,,,,,szalvéta,1259.817989927251,None,4,1259.817989927251,None,1259.817989927251,None,1259.817989927251,None, puska,1265.5494382288307,None,1265.5494382288307,None,down,2.7352114813402295,1265.5494382288307,None,1268.3291115225293,None,4,1.279466163367033,1268.3291115225293,None,5.688610876444727,,,,,,,,,,,,,,,,,,,,,,,,,,,288292,2022_Jun_17_1129,palt,2021.1.2,53.00444104083547,
6,menta,triatlon,,,,,,,,,3,0,3,0,,,,,0,5,5,5,,,,,,,,,1269.6335005098954,None,,,,,,,,,,,menta,1270.6391163556837,None,4,1270.6391163556837,None,1270.6391163556837,None,1270.6391163556837,None, ,1282.7969413124956,None,1282.7969413124956,None,down,1.6634230753406882,1282.7969413124956,None,1284.5188031471334,None,4,1.5854512359946966,1284.5188031471334,None,12.129260245710611,,,,,,,,,,,,,,,,,,,,,,,,,,,288292,2022_Jun_17_1129,palt,2021.1.2,53.00444104083547,
10,málna,dominó,,,,,,,,,3,0,3,0,,,,,0,6,6,9,,,,,,,,,1286.1409531608224,None,,,,,,,,,,,dominó,1287.150865873322,None,4,1287.150865873322,None,1287.150865873322,None,1287.150865873322,None, ,1298.2801385596395,None,1298.2801385596395,None,down,1.6362171522341669,1298.2801385596395,None,1299.939420582261,None,4,1.0677269706502557,1299.939420582261,None,11.094321455340832,,,,,,,,,,,,,,,,,,,,,,,,,,,288292,2022_Jun_17_1129,palt,2021.1.2,53.00444104083547,
7,csavarhúzó,hering,,,,,,,,,3,0,3,0,,,,,0,7,7,6,,,,,,,,,1301.0521915699355,None,,,,,,,,,,,csavarhúzó,1302.0783562432043,None,4,1302.0783562432043,None,1302.0783562432043,None,1302.0783562432043,None, ,1312.7092561158352,None,1312.7092561158352,None,down,1.7988428068347275,1312.7092561158352,None,1314.5404218370095,None,4,1.2054913812316954,1314.5404218370095,None,10.58873515482992,,,,,,,,,,,,,,,,,,,,,,,,,,,288292,2022_Jun_17_1129,palt,2021.1.2,53.00444104083547,
9,szilva,kecske,,,,,,,,,3,0,3,0,,,,,0,8,8,8,,,,,,,,,1315.7704836712219,None,,,,,,,,,,,szilva,1316.7787723075598,None,4,1316.7787723075598,None,1316.7787723075598,None,1316.7787723075598,None, kecske,1323.294015362393,None,1323.294015362393,None,down,2.157813449855894,1323.294015362393,None,1325.4931192905642,None,4,1.5260268971323967,1325.4931192905642,None,6.4782195864245296,,,,,,,,,,,,,,,,,,,,,,,,,,,288292,2022_Jun_17_1129,palt,2021.1.2,53.00444104083547,
3,fogó,limonádé,,,,,,,,,3,0,3,0,,,,,0,9,9,2,,,,,,,,,1327.0484066200443,None,,,,,,,,,,,limonádé,1328.0569798275828,None,None,1328.0569798275828,None,1328.0569798275828,None,1328.0569798275828,None, ,1343.059035581071,None,1343.059035581071,None,down,1.5446972441859543,1343.059035581071,None,1344.6403165301308,None,4,2.050389908719808,1344.6403165301308,None,,,,,,,,,,,,,,,,,,,,,,,,,,,,288292,2022_Jun_17_1129,palt,2021.1.2,53.00444104083547,
