itemno,wordA,wordB,enc_gyak.thisRepN,enc_gyak.thisTrialN,enc_gyak.thisN,enc_gyak.thisIndex,rec_gyak.thisRepN,rec_gyak.thisTrialN,rec_gyak.thisN,rec_gyak.thisIndex,repeat_task.thisRepN,repeat_task.thisTrialN,repeat_task.thisN,repeat_task.thisIndex,enc_loop.thisRepN,enc_loop.thisTrialN,enc_loop.thisN,enc_loop.thisIndex,test_loop.thisRepN,test_loop.thisTrialN,test_loop.thisN,test_loop.thisIndex,int.started,int.stopped,int_key.keys,int_key.rt,int_key.started,int_key.stopped,prepare_gyak_text.started,prepare_gyak_text.stopped,fix.started,fix.stopped,word1.started,word1.stopped,word2.started,word2.stopped,gykrec_inst.started,gykrec_inst.stopped,gyakrec_inst.keys,gyakrec_inst.rt,gyakrec_inst.started,gyakrec_inst.stopped,cueword,cueword1.started,cueword1.stopped,cue_resp.keys,cue_resp.rt,cue_resp.started,cue_resp.stopped,cue_cont_text.started,cue_cont_text.stopped,cue_space.started,cue_space.stopped,test_ansbox.text,test_ansbox.started,test_ansbox.stopped,ans_text.started,ans_text.stopped,ans_continue.keys,ans_continue.rt,ans_continue.started,ans_continue.stopped,feedback_text.started,feedback_text.stopped,feedback_cont.keys,feedback_cont.rt,feedback_cont.started,feedback_cont.stopped,main_prep.started,main_prep.stopped,main_prep_resp.keys,main_prep_resp.rt,main_prep_resp.started,main_prep_resp.stopped,preparation.started,preparation.stopped,break_text.started,break_text.stopped,key_resp.keys,key_resp.rt,key_resp.started,key_resp.stopped,test_instruction.started,test_instruction.stopped,test_i_key.keys,test_i_key.rt,test_i_key.started,test_i_key.stopped,rep_routine.keys,rep_routine.rt,rep_routine.started,rep_routine.stopped,encrep_textbox.started,encrep_textbox.stopped,end_text.started,end_text.stopped,Résztvevő kódja,date,expName,psychopyVersion,frameRate,
,,,,,,,,,,,,,,,,,,,,,,,16.27861991431564,None,4,29.33043734356761,16.27861991431564,None,,,,,,,,,,,,,,,,,,,,,,,,,,,,,,,,,,,,,,,,,,,,,,,,,,,,,,,,,,,,,,,,,,,,,343063,2022_Jun_14_1319,palt,2021.1.2,52.358911590693836,
1,sapka,beton,0,0,0,0,,,,,,,,,,,,,,,,,,,,,,,45.639991527888924,None,48.66707024909556,None,49.66064205439761,None,49.66064205439761,None,,,,,,,,,,,,,,,,,,,,,,,,,,,,,,,,,,,,,,,,,,,,,,,,,,,,,,,,,,,,,343063,2022_Jun_14_1319,palt,2021.1.2,52.358911590693836,
4,kard,harcsa,0,1,1,3,,,,,,,,,,,,,,,,,,,,,,,,,55.64766219444573,None,56.678080504294485,None,56.678080504294485,None,,,,,,,,,,,,,,,,,,,,,,,,,,,,,,,,,,,,,,,,,,,,,,,,,,,,,,,,,,,,,343063,2022_Jun_14_1319,palt,2021.1.2,52.358911590693836,
2,lepke,szintetizátor,0,2,2,1,,,,,,,,,,,,,,,,,,,,,,,,,62.653876727912575,None,63.68047183426097,None,63.68047183426097,None,,,,,,,,,,,,,,,,,,,,,,,,,,,,,,,,,,,,,,,,,,,,,,,,,,,,,,,,,,,,,343063,2022_Jun_14_1319,palt,2021.1.2,52.358911590693836,
3,majoránna,szikla,0,3,3,2,,,,,,,,,,,,,,,,,,,,,,,,,69.65397220710292,None,70.67943369410932,None,70.67943369410932,None,,,,,,,,,,,,,,,,,,,,,,,,,,,,,,,,,,,,,,,,,,,,,,,,,,,,,,,,,,,,,343063,2022_Jun_14_1319,palt,2021.1.2,52.358911590693836,
,,,,,,,,,,,,,,,,,,,,,,,,,,,,,,,,,,,,,76.66885947016999,None,4,31.266402021050453,76.66885947016999,None,,,,,,,,,,,,,,,,,,,,,,,,,,,,,,,,,,,,,,,,,,,,,,,,,,,,,,,343063,2022_Jun_14_1319,palt,2021.1.2,52.358911590693836,
3,majoránna,szikla,,,,,0,0,0,2,,,,,,,,,,,,,,,,,,,,,107.98314313171431,None,,,,,,,,,,,szikla,108.99544810736552,None,4,7.771366307977587,108.99544810736552,None,108.99544810736552,None,108.99544810736552,None,majoránna,116.8243808010593,None,116.8243808010593,None,down,4.173352271318436,116.8243808010593,None,121.05405294429511,None,4,5.228709266521037,121.05405294429511,None,,,,,,,,,,,,,,,,,,,,,,,,,,,,,343063,2022_Jun_14_1319,palt,2021.1.2,52.358911590693836,
2,lepke,szintetizátor,,,,,0,1,1,1,,,,,,,,,,,,,,,,,,,,,126.33373992238194,None,,,,,,,,,,,lepke,127.34627006668597,None,4,10.470450953580439,127.34627006668597,None,127.34627006668597,None,127.34627006668597,None,szivárvány,137.84379227738827,None,137.84379227738827,None,down,3.2337102526798844,137.84379227738827,None,141.1235510976985,None,4,2.412386646028608,141.1235510976985,None,,,,,,,,,,,,,,,,,,,,,,,,,,,,,343063,2022_Jun_14_1319,palt,2021.1.2,52.358911590693836,
1,sapka,beton,,,,,0,2,2,0,,,,,,,,,,,,,,,,,,,,,143.56432642461732,None,,,,,,,,,,,sapka,144.57951691932976,None,4,2.506158241070807,144.57951691932976,None,144.57951691932976,None,144.57951691932976,None,beton,147.1133930007927,None,147.1133930007927,None,down,2.9400985767133534,147.1133930007927,None,150.0866420804523,None,4,1.7661690767854452,150.0866420804523,None,,,,,,,,,,,,,,,,,,,,,,,,,,,,,343063,2022_Jun_14_1319,palt,2021.1.2,52.358911590693836,
4,kard,harcsa,,,,,0,3,3,3,,,,,,,,,,,,,,,,,,,,,151.88112146453932,None,,,,,,,,,,,kard,152.89941891515628,None,4,12.861180655658245,152.89941891515628,None,152.89941891515628,None,152.89941891515628,None, ,165.79667851142585,None,165.79667851142585,None,down,1.5525825056247413,165.79667851142585,None,167.40240302309394,None,4,3.0088291661813855,167.40240302309394,None,,,,,,,,,,,,,,,,,,,,,,,,,,,,,343063,2022_Jun_14_1319,palt,2021.1.2,52.358911590693836,
,,,,,,,,,,,,,,,,,,,,,,,,,,,,,,,,,,,,,,,,,,,,,,,,,,,,,,,,,,,,,,,,,,,,,170.4398463498801,None,4,68.47265101410449,170.4398463498801,None,,,,,,,,,,,,,,,,,,,,,,,343063,2022_Jun_14_1319,palt,2021.1.2,52.358911590693836,
8,szalvéta,puska,,,,,,,,,0,0,0,0,0,0,0,7,,,,,,,,,,,,,242.98358911508694,None,243.97968131769449,None,243.97968131769449,None,,,,,,,,,,,,,,,,,,,,,,,,,,,,,,,,,,,,,,,238.9535070033744,None,,,,,,,,,,,,,,,,,,,,,343063,2022_Jun_14_1319,palt,2021.1.2,52.358911590693836,
7,csavarhúzó,hering,,,,,,,,,0,0,0,0,0,1,1,6,,,,,,,,,,,,,249.96026984136552,None,250.97538973763585,None,250.97538973763585,None,,,,,,,,,,,,,,,,,,,,,,,,,,,,,,,,,,,,,,,,,,,,,,,,,,,,,,,,,,,,,343063,2022_Jun_14_1319,palt,2021.1.2,52.358911590693836,
2,kötény,tisztás,,,,,,,,,0,0,0,0,0,2,2,1,,,,,,,,,,,,,256.95957754086703,None,257.97989280195907,None,257.97989280195907,None,,,,,,,,,,,,,,,,,,,,,,,,,,,,,,,,,,,,,,,,,,,,,,,,,,,,,,,,,,,,,343063,2022_Jun_14_1319,palt,2021.1.2,52.358911590693836,
5,karton,hentes,,,,,,,,,0,0,0,0,0,3,3,4,,,,,,,,,,,,,263.9611456361599,None,264.9570111143403,None,264.9570111143403,None,,,,,,,,,,,,,,,,,,,,,,,,,,,,,,,,,,,,,,,,,,,,,,,,,,,,,,,,,,,,,343063,2022_Jun_14_1319,palt,2021.1.2,52.358911590693836,
3,fogó,limonádé,,,,,,,,,0,0,0,0,0,4,4,2,,,,,,,,,,,,,270.95847626635805,None,271.9676015106961,None,271.9676015106961,None,,,,,,,,,,,,,,,,,,,,,,,,,,,,,,,,,,,,,,,,,,,,,,,,,,,,,,,,,,,,,343063,2022_Jun_14_1319,palt,2021.1.2,52.358911590693836,
10,málna,dominó,,,,,,,,,0,0,0,0,0,5,5,9,,,,,,,,,,,,,277.9584429888055,None,278.96704480890185,None,278.96704480890185,None,,,,,,,,,,,,,,,,,,,,,,,,,,,,,,,,,,,,,,,,,,,,,,,,,,,,,,,,,,,,,343063,2022_Jun_14_1319,palt,2021.1.2,52.358911590693836,
1,bagoly,kirakó,,,,,,,,,0,0,0,0,0,6,6,0,,,,,,,,,,,,,284.95820382470265,None,285.96809227904305,None,285.96809227904305,None,,,,,,,,,,,,,,,,,,,,,,,,,,,,,,,,,,,,,,,,,,,,,,,,,,,,,,,,,,,,,343063,2022_Jun_14_1319,palt,2021.1.2,52.358911590693836,
4,mocsár,ananász,,,,,,,,,0,0,0,0,0,7,7,3,,,,,,,,,,,,,291.9605158478953,None,292.9628866510466,None,292.9628866510466,None,,,,,,,,,,,,,,,,,,,,,,,,,,,,,,,,,,,,,,,,,,,,,,,,,,,,,,,,,,,,,343063,2022_Jun_14_1319,palt,2021.1.2,52.358911590693836,
9,szilva,kecske,,,,,,,,,0,0,0,0,0,8,8,8,,,,,,,,,,,,,298.95911569613963,None,299.97273871768266,None,299.97273871768266,None,,,,,,,,,,,,,,,,,,,,,,,,,,,,,,,,,,,,,,,,,,,,,,,,,,,,,,,,,,,,,343063,2022_Jun_14_1319,palt,2021.1.2,52.358911590693836,
6,menta,triatlon,,,,,,,,,0,0,0,0,0,9,9,5,,,,,,,,,,,,,305.9590370114893,None,306.9779418576509,None,306.9779418576509,None,,,,,,,,,,,,,,,,,,,,,,,,,,,,,,,,,,,,,,,,,,,,,,,,,,,,,,,,,,,,,343063,2022_Jun_14_1319,palt,2021.1.2,52.358911590693836,
4,mocsár,ananász,,,,,,,,,0,0,0,0,,,,,0,0,0,3,,,,,,,,,335.60502039268613,None,,,,,,,,,,,mocsár,336.6073314822279,None,None,,336.6073314822279,None,336.6073314822279,None,336.6073314822279,None, ,351.5909877754748,None,351.5909877754748,None,down,2.15622824896127,351.5909877754748,None,353.7908284775913,None,4,2.1284967246465385,353.7908284775913,None,,,,,,,331.5804166616872,None,312.95998527063057,None,u,2.6436912626959383,312.95998527063057,None,315.64361195545644,None,4,15.893775701057166,315.64361195545644,None,,,,,,,,,343063,2022_Jun_14_1319,palt,2021.1.2,52.358911590693836,
10,málna,dominó,,,,,,,,,0,0,0,0,,,,,0,1,1,9,,,,,,,,,355.9466135422699,None,,,,,,,,,,,dominó,356.9612236986868,None,4,6.223082535434514,356.9612236986868,None,356.9612236986868,None,356.9612236986868,None, málna,363.2139348988421,None,363.2139348988421,None,down,2.6931602810509503,363.2139348988421,None,365.9392461073585,None,4,3.085714037064463,365.9392461073585,None,,,,,,,,,,,,,,,,,,,,,,,,,,,,,343063,2022_Jun_14_1319,palt,2021.1.2,52.358911590693836,
3,fogó,limonádé,,,,,,,,,0,0,0,0,,,,,0,2,2,2,,,,,,,,,369.06871317280456,None,,,,,,,,,,,limonádé,370.09919897140935,None,4,13.479693136177957,370.09919897140935,None,370.09919897140935,None,370.09919897140935,None, ,383.62650192854926,None,383.62650192854926,None,down,1.3202705383300781,383.62650192854926,None,384.9932931428775,None,4,2.0648078629747033,384.9932931428775,None,,,,,,,,,,,,,,,,,,,,,,,,,,,,,343063,2022_Jun_14_1319,palt,2021.1.2,52.358911590693836,
9,szilva,kecske,,,,,,,,,0,0,0,0,,,,,0,3,3,8,,,,,,,,,387.0783733483404,None,,,,,,,,,,,szilva,388.0934257558547,None,4,2.1492414860986173,388.0934257558547,None,388.0934257558547,None,388.0934257558547,None, kecske,390.2862103409134,None,390.2862103409134,None,down,2.4845958440564573,390.2862103409134,None,392.8135655471124,None,4,1.8961679632775486,392.8135655471124,None,,,,,,,,,,,,,,,,,,,,,,,,,,,,,343063,2022_Jun_14_1319,palt,2021.1.2,52.358911590693836,
2,kötény,tisztás,,,,,,,,,0,0,0,0,,,,,0,4,4,1,,,,,,,,,394.7284949827008,None,,,,,,,,,,,kötény,395.7451008684002,None,4,6.144640765618533,395.7451008684002,None,395.7451008684002,None,395.7451008684002,None, tiszta,401.93157948413864,None,401.93157948413864,None,down,2.775074439123273,401.93157948413864,None,404.7417049878277,None,4,3.4538805224001408,404.7417049878277,None,,,,,,,,,,,,,,,,,,,,,,,,,,,,,343063,2022_Jun_14_1319,palt,2021.1.2,52.358911590693836,
5,karton,hentes,,,,,,,,,0,0,0,0,,,,,0,5,5,4,,,,,,,,,408.23163925949484,None,,,,,,,,,,,hentes,409.25657359045,None,4,7.2731651701033115,409.25657359045,None,409.25657359045,None,409.25657359045,None, kecske,416.5673932605423,None,416.5673932605423,None,down,4.0113679128699005,416.5673932605423,None,420.6124730431475,None,4,4.2591359741054475,420.6124730431475,None,,,,,,,,,,,,,,,,,,,,,,,,,,,,,343063,2022_Jun_14_1319,palt,2021.1.2,52.358911590693836,
8,szalvéta,puska,,,,,,,,,0,0,0,0,,,,,0,6,6,7,,,,,,,,,424.9078450165689,None,,,,,,,,,,,szalvéta,425.927669509314,None,4,7.208952573128045,425.927669509314,None,425.927669509314,None,425.927669509314,None, ,433.1775166494772,None,433.1775166494772,None,down,1.7527466546744108,433.1775166494772,None,434.95843583578244,None,4,1.4081740616820753,434.95843583578244,None,,,,,,,,,,,,,,,,,,,,,,,,,,,,,343063,2022_Jun_14_1319,palt,2021.1.2,52.358911590693836,
6,menta,triatlon,,,,,,,,,0,0,0,0,,,,,0,7,7,5,,,,,,,,,436.4009220097214,None,,,,,,,,,,,menta,437.42119279690087,None,None,,437.42119279690087,None,437.42119279690087,None,437.42119279690087,None, ,452.41980912862346,None,452.41980912862346,None,down,2.7821529493667185,452.41980912862346,None,455.24128948291764,None,4,1.7807969604618847,455.24128948291764,None,,,,,,,,,,,,,,,,,,,,,,,,,,,,,343063,2022_Jun_14_1319,palt,2021.1.2,52.358911590693836,
7,csavarhúzó,hering,,,,,,,,,0,0,0,0,,,,,0,8,8,6,,,,,,,,,457.04538083681837,None,,,,,,,,,,,hering,458.0615146141499,None,4,11.387312673032284,458.0615146141499,None,458.0615146141499,None,458.0615146141499,None,,469.4875650233589,None,469.4875650233589,None,down,1.6662121824920177,469.4875650233589,None,471.1954825669527,None,4,1.8143057427369058,471.1954825669527,None,,,,,,,,,,,,,,,,,,,,,,,,,,,,,343063,2022_Jun_14_1319,palt,2021.1.2,52.358911590693836,
1,bagoly,kirakó,,,,,,,,,0,0,0,0,,,,,0,9,9,0,,,,,,,,,473.0547698144801,None,,,,,,,,,,,bagoly,474.0692316205241,None,4,6.5235830075107515,474.0692316205241,None,474.0692316205241,None,474.0692316205241,None, ,480.62304975511506,None,480.62304975511506,None,down,1.906706421636045,480.62304975511506,None,482.57387868128717,None,4,1.1108309291303158,482.57387868128717,None,,,,,,,,,,,,,,,,,,,,,,,,,,,,,343063,2022_Jun_14_1319,palt,2021.1.2,52.358911590693836,
,,,,,,,,,,,0,0,0,0,,,,,,,,,,,,,,,,,,,,,,,,,,,,,,,,,,,,,,,,,,,,,,,,,,,,,,,,,,,,,,,,,,,,,,,,,,,4,25.13787170732394,483.74563175672665,None,483.74563175672665,None,,,343063,2022_Jun_14_1319,palt,2021.1.2,52.358911590693836,
8,szalvéta,puska,,,,,,,,,1,0,1,0,0,0,0,7,,,,,,,,,,,,,512.9448177902959,None,513.9456973168999,None,513.9456973168999,None,,,,,,,,,,,,,,,,,,,,,,,,,,,,,,,,,,,,,,,508.920940881595,None,,,,,,,,,,,,,,,,,,,,,343063,2022_Jun_14_1319,palt,2021.1.2,52.358911590693836,
4,mocsár,ananász,,,,,,,,,1,0,1,0,0,1,1,3,,,,,,,,,,,,,519.9256087797694,None,520.9347355789505,None,520.9347355789505,None,,,,,,,,,,,,,,,,,,,,,,,,,,,,,,,,,,,,,,,,,,,,,,,,,,,,,,,,,,,,,343063,2022_Jun_14_1319,palt,2021.1.2,52.358911590693836,
5,karton,hentes,,,,,,,,,1,0,1,0,0,2,2,4,,,,,,,,,,,,,526.9225375894457,None,527.934604645241,None,527.934604645241,None,,,,,,,,,,,,,,,,,,,,,,,,,,,,,,,,,,,,,,,,,,,,,,,,,,,,,,,,,,,,,343063,2022_Jun_14_1319,palt,2021.1.2,52.358911590693836,
6,menta,triatlon,,,,,,,,,1,0,1,0,0,3,3,5,,,,,,,,,,,,,533.9230918032117,None,534.9466396667995,None,534.9466396667995,None,,,,,,,,,,,,,,,,,,,,,,,,,,,,,,,,,,,,,,,,,,,,,,,,,,,,,,,,,,,,,343063,2022_Jun_14_1319,palt,2021.1.2,52.358911590693836,
7,csavarhúzó,hering,,,,,,,,,1,0,1,0,0,4,4,6,,,,,,,,,,,,,540.9223030908033,None,541.949964327272,None,541.949964327272,None,,,,,,,,,,,,,,,,,,,,,,,,,,,,,,,,,,,,,,,,,,,,,,,,,,,,,,,,,,,,,343063,2022_Jun_14_1319,palt,2021.1.2,52.358911590693836,
3,fogó,limonádé,,,,,,,,,1,0,1,0,0,5,5,2,,,,,,,,,,,,,547.922764624469,None,548.9289206885733,None,548.9289206885733,None,,,,,,,,,,,,,,,,,,,,,,,,,,,,,,,,,,,,,,,,,,,,,,,,,,,,,,,,,,,,,343063,2022_Jun_14_1319,palt,2021.1.2,52.358911590693836,
10,málna,dominó,,,,,,,,,1,0,1,0,0,6,6,9,,,,,,,,,,,,,554.922008256428,None,555.926413975656,None,555.926413975656,None,,,,,,,,,,,,,,,,,,,,,,,,,,,,,,,,,,,,,,,,,,,,,,,,,,,,,,,,,,,,,343063,2022_Jun_14_1319,palt,2021.1.2,52.358911590693836,
1,bagoly,kirakó,,,,,,,,,1,0,1,0,0,7,7,0,,,,,,,,,,,,,561.9216736131348,None,562.9417795669287,None,562.9417795669287,None,,,,,,,,,,,,,,,,,,,,,,,,,,,,,,,,,,,,,,,,,,,,,,,,,,,,,,,,,,,,,343063,2022_Jun_14_1319,palt,2021.1.2,52.358911590693836,
9,szilva,kecske,,,,,,,,,1,0,1,0,0,8,8,8,,,,,,,,,,,,,568.9218210303225,None,569.9373828670941,None,569.9373828670941,None,,,,,,,,,,,,,,,,,,,,,,,,,,,,,,,,,,,,,,,,,,,,,,,,,,,,,,,,,,,,,343063,2022_Jun_14_1319,palt,2021.1.2,52.358911590693836,
2,kötény,tisztás,,,,,,,,,1,0,1,0,0,9,9,1,,,,,,,,,,,,,575.9215918183327,None,576.9283033404499,None,576.9283033404499,None,,,,,,,,,,,,,,,,,,,,,,,,,,,,,,,,,,,,,,,,,,,,,,,,,,,,,,,,,,,,,343063,2022_Jun_14_1319,palt,2021.1.2,52.358911590693836,
5,karton,hentes,,,,,,,,,1,0,1,0,,,,,0,0,0,4,,,,,,,,,595.9640370644629,None,,,,,,,,,,,hentes,596.9010759582743,None,4,12.992236031685024,596.9010759582743,None,596.9010759582743,None,596.9010759582743,None,kötény,609.9199058520608,None,609.9199058520608,None,down,3.120425792876631,609.9199058520608,None,613.076800276991,None,4,4.013435795437545,613.076800276991,None,,,,,,,591.8884382057004,None,582.9212910751812,None,u,4.0232704458758235,582.9212910751812,None,586.9844033303671,None,4,4.863397821318358,586.9844033303671,None,,,,,,,,,343063,2022_Jun_14_1319,palt,2021.1.2,52.358911590693836,
10,málna,dominó,,,,,,,,,1,0,1,0,,,,,0,1,1,9,,,,,,,,,617.119879975915,None,,,,,,,,,,,dominó,618.1392149445601,None,4,11.391927699558437,618.1392149445601,None,618.1392149445601,None,618.1392149445601,None,,629.5629010815173,None,629.5629010815173,None,down,2.2292124750092626,629.5629010815173,None,631.8193067288958,None,4,1.3887156238779426,631.8193067288958,None,,,,,,,,,,,,,,,,,,,,,,,,,,,,,343063,2022_Jun_14_1319,palt,2021.1.2,52.358911590693836,
8,szalvéta,puska,,,,,,,,,1,0,1,0,,,,,0,2,2,7,,,,,,,,,633.2433032505214,None,,,,,,,,,,,szalvéta,634.2593340850435,None,4,9.68482312746346,634.2593340850435,None,634.2593340850435,None,634.2593340850435,None, ,643.981265896,None,643.981265896,None,down,2.2426205910742283,643.981265896,None,646.2439268184826,None,4,1.957978656515479,646.2439268184826,None,,,,,,,,,,,,,,,,,,,,,,,,,,,,,343063,2022_Jun_14_1319,palt,2021.1.2,52.358911590693836,
7,csavarhúzó,hering,,,,,,,,,1,0,1,0,,,,,0,3,3,6,,,,,,,,,648.227032629773,None,,,,,,,,,,,hering,649.2438070811331,None,4,8.570967037696391,649.2438070811331,None,649.2438070811331,None,649.2438070811331,None, csavar,657.8423737762496,None,657.8423737762496,None,down,4.349302070215344,657.8423737762496,None,662.2220689649694,None,4,4.159534871112555,662.2220689649694,None,,,,,,,,,,,,,,,,,,,,,,,,,,,,,343063,2022_Jun_14_1319,palt,2021.1.2,52.358911590693836,
4,mocsár,ananász,,,,,,,,,1,0,1,0,,,,,0,4,4,3,,,,,,,,,666.4269283805043,None,,,,,,,,,,,mocsár,667.4506214843132,None,4,2.19489756366238,667.4506214843132,None,667.4506214843132,None,667.4506214843132,None,ananász,669.6903550014831,None,669.6903550014831,None,down,2.9332903316244483,669.6903550014831,None,672.6619712961838,None,4,1.2257724315859377,672.6619712961838,None,,,,,,,,,,,,,,,,,,,,,,,,,,,,,343063,2022_Jun_14_1319,palt,2021.1.2,52.358911590693836,
3,fogó,limonádé,,,,,,,,,1,0,1,0,,,,,0,5,5,2,,,,,,,,,673.9130291850306,None,,,,,,,,,,,limonádé,674.9374823891558,None,4,9.392944691237062,674.9374823891558,None,674.9374823891558,None,674.9374823891558,None, ,684.365301492624,None,684.365301492624,None,down,1.1701650759205222,684.365301492624,None,685.5682824286632,None,4,1.7032844782806933,685.5682824286632,None,,,,,,,,,,,,,,,,,,,,,,,,,,,,,343063,2022_Jun_14_1319,palt,2021.1.2,52.358911590693836,
2,kötény,tisztás,,,,,,,,,1,0,1,0,,,,,0,6,6,1,,,,,,,,,687.2915229555219,None,,,,,,,,,,,kötény,688.2978077763692,None,4,8.275559609755874,688.2978077763692,None,688.2978077763692,None,688.2978077763692,None,tisztás,696.6139226448722,None,696.6139226448722,None,down,2.2652640477754176,696.6139226448722,None,698.9244213565253,None,4,1.2719634408131242,698.9244213565253,None,,,,,,,,,,,,,,,,,,,,,,,,,,,,,343063,2022_Jun_14_1319,palt,2021.1.2,52.358911590693836,
6,menta,triatlon,,,,,,,,,1,0,1,0,,,,,0,7,7,5,,,,,,,,,700.2259842269123,None,,,,,,,,,,,menta,701.229738698341,None,4,2.284554230980575,701.229738698341,None,701.229738698341,None,701.229738698341,None,triatlon,703.5431562066078,None,703.5431562066078,None,down,2.3601083047688007,703.5431562066078,None,705.9331547324546,None,4,1.0850553247146308,705.9331547324546,None,,,,,,,,,,,,,,,,,,,,,,,,,,,,,343063,2022_Jun_14_1319,palt,2021.1.2,52.358911590693836,
9,szilva,kecske,,,,,,,,,1,0,1,0,,,,,0,8,8,8,,,,,,,,,707.054109858349,None,,,,,,,,,,,szilva,708.06899681082,None,4,2.369071203749627,708.06899681082,None,708.06899681082,None,708.06899681082,None,kecske,710.4800035203807,None,710.4800035203807,None,down,1.7751593445427716,710.4800035203807,None,712.3025733302347,None,4,1.1754661831073463,712.3025733302347,None,,,,,,,,,,,,,,,,,,,,,,,,,,,,,343063,2022_Jun_14_1319,palt,2021.1.2,52.358911590693836,
1,bagoly,kirakó,,,,,,,,,1,0,1,0,,,,,0,9,9,0,,,,,,,,,713.5201417193748,None,,,,,,,,,,,bagoly,714.5272174300626,None,4,11.704883985221386,714.5272174300626,None,714.5272174300626,None,714.5272174300626,None, ,726.2636359278113,None,726.2636359278113,None,down,1.207350889686495,726.2636359278113,None,727.5031197066419,None,4,1.6941928225569427,727.5031197066419,None,,,,,,,,,,,,,,,,,,,,,,,,,,,,,343063,2022_Jun_14_1319,palt,2021.1.2,52.358911590693836,
,,,,,,,,,,,1,0,1,0,,,,,,,,,,,,,,,,,,,,,,,,,,,,,,,,,,,,,,,,,,,,,,,,,,,,,,,,,,,,,,,,,,,,,,,,,,,4,9.356428785715252,729.2433536336757,None,729.2433536336757,None,,,343063,2022_Jun_14_1319,palt,2021.1.2,52.358911590693836,
10,málna,dominó,,,,,,,,,2,0,2,0,0,0,0,9,,,,,,,,,,,,,742.6542769935913,None,743.6564745660871,None,743.6564745660871,None,,,,,,,,,,,,,,,,,,,,,,,,,,,,,,,,,,,,,,,738.6255881912075,None,,,,,,,,,,,,,,,,,,,,,343063,2022_Jun_14_1319,palt,2021.1.2,52.358911590693836,
9,szilva,kecske,,,,,,,,,2,0,2,0,0,1,1,8,,,,,,,,,,,,,749.6339160143398,None,750.6522871730849,None,750.6522871730849,None,,,,,,,,,,,,,,,,,,,,,,,,,,,,,,,,,,,,,,,,,,,,,,,,,,,,,,,,,,,,,343063,2022_Jun_14_1319,palt,2021.1.2,52.358911590693836,
6,menta,triatlon,,,,,,,,,2,0,2,0,0,2,2,5,,,,,,,,,,,,,756.6376135717146,None,757.6443826300092,None,757.6443826300092,None,,,,,,,,,,,,,,,,,,,,,,,,,,,,,,,,,,,,,,,,,,,,,,,,,,,,,,,,,,,,,343063,2022_Jun_14_1319,palt,2021.1.2,52.358911590693836,
4,mocsár,ananász,,,,,,,,,2,0,2,0,0,3,3,3,,,,,,,,,,,,,763.6379398177378,None,764.6511320946738,None,764.6511320946738,None,,,,,,,,,,,,,,,,,,,,,,,,,,,,,,,,,,,,,,,,,,,,,,,,,,,,,,,,,,,,,343063,2022_Jun_14_1319,palt,2021.1.2,52.358911590693836,
2,kötény,tisztás,,,,,,,,,2,0,2,0,0,4,4,1,,,,,,,,,,,,,770.6354231522419,None,771.6488580144942,None,771.6488580144942,None,,,,,,,,,,,,,,,,,,,,,,,,,,,,,,,,,,,,,,,,,,,,,,,,,,,,,,,,,,,,,343063,2022_Jun_14_1319,palt,2021.1.2,52.358911590693836,
8,szalvéta,puska,,,,,,,,,2,0,2,0,0,5,5,7,,,,,,,,,,,,,777.6287812953815,None,778.6443257159553,None,778.6443257159553,None,,,,,,,,,,,,,,,,,,,,,,,,,,,,,,,,,,,,,,,,,,,,,,,,,,,,,,,,,,,,,343063,2022_Jun_14_1319,palt,2021.1.2,52.358911590693836,
7,csavarhúzó,hering,,,,,,,,,2,0,2,0,0,6,6,6,,,,,,,,,,,,,784.639872723259,None,785.6446096645668,None,785.6446096645668,None,,,,,,,,,,,,,,,,,,,,,,,,,,,,,,,,,,,,,,,,,,,,,,,,,,,,,,,,,,,,,343063,2022_Jun_14_1319,palt,2021.1.2,52.358911590693836,
3,fogó,limonádé,,,,,,,,,2,0,2,0,0,7,7,2,,,,,,,,,,,,,791.6398518858477,None,792.6438097557984,None,792.6438097557984,None,,,,,,,,,,,,,,,,,,,,,,,,,,,,,,,,,,,,,,,,,,,,,,,,,,,,,,,,,,,,,343063,2022_Jun_14_1319,palt,2021.1.2,52.358911590693836,
1,bagoly,kirakó,,,,,,,,,2,0,2,0,0,8,8,0,,,,,,,,,,,,,798.6357944943011,None,799.645323114004,None,799.645323114004,None,,,,,,,,,,,,,,,,,,,,,,,,,,,,,,,,,,,,,,,,,,,,,,,,,,,,,,,,,,,,,343063,2022_Jun_14_1319,palt,2021.1.2,52.358911590693836,
5,karton,hentes,,,,,,,,,2,0,2,0,0,9,9,4,,,,,,,,,,,,,805.63654308673,None,806.6483600931242,None,806.6483600931242,None,,,,,,,,,,,,,,,,,,,,,,,,,,,,,,,,,,,,,,,,,,,,,,,,,,,,,,,,,,,,,343063,2022_Jun_14_1319,palt,2021.1.2,52.358911590693836,
5,karton,hentes,,,,,,,,,2,0,2,0,,,,,0,0,0,4,,,,,,,,,823.9548629918136,None,,,,,,,,,,,hentes,824.9413842777722,None,4,6.027452240232378,824.9413842777722,None,824.9413842777722,None,824.9413842777722,None,karton,831.0029268828221,None,831.0029268828221,None,down,2.4669123203493655,831.0029268828221,None,833.5101804891601,None,4,1.6669060378335416,833.5101804891601,None,,,,,,,819.9306915602647,None,812.6380147701129,None,u,4.416312171146274,812.6380147701129,None,817.0775373624638,None,4,2.8173937276005745,817.0775373624638,None,,,,,,,,,343063,2022_Jun_14_1319,palt,2021.1.2,52.358911590693836,
3,fogó,limonádé,,,,,,,,,2,0,2,0,,,,,0,1,1,2,,,,,,,,,835.2114023719914,None,,,,,,,,,,,limonádé,836.2351309303194,None,4,12.708779653999954,836.2351309303194,None,836.2351309303194,None,836.2351309303194,None, ,848.9811358954757,None,848.9811358954757,None,down,1.3044832223095,848.9811358954757,None,850.3222964350134,None,4,1.9072024771012366,850.3222964350134,None,,,,,,,,,,,,,,,,,,,,,,,,,,,,,343063,2022_Jun_14_1319,palt,2021.1.2,52.358911590693836,
1,bagoly,kirakó,,,,,,,,,2,0,2,0,,,,,0,2,2,0,,,,,,,,,852.2744188373908,None,,,,,,,,,,,bagoly,853.2854928486049,None,4,1.992068710271269,853.2854928486049,None,853.2854928486049,None,853.2854928486049,None,kecske,855.3072751280852,None,855.3072751280852,None,down,2.4821553751826286,855.3072751280852,None,857.816038982477,None,4,3.098652532789856,857.816038982477,None,,,,,,,,,,,,,,,,,,,,,,,,,,,,,343063,2022_Jun_14_1319,palt,2021.1.2,52.358911590693836,
4,mocsár,ananász,,,,,,,,,2,0,2,0,,,,,0,3,3,3,,,,,,,,,860.9511489514261,None,,,,,,,,,,,mocsár,861.969128863886,None,4,1.5992378471419215,861.969128863886,None,861.969128863886,None,861.969128863886,None,ananász,863.6125902929343,None,863.6125902929343,None,down,3.1367135187610984,863.6125902929343,None,866.7977900491096,None,4,1.0838570166379213,866.7977900491096,None,,,,,,,,,,,,,,,,,,,,,,,,,,,,,343063,2022_Jun_14_1319,palt,2021.1.2,52.358911590693836,
9,szilva,kecske,,,,,,,,,2,0,2,0,,,,,0,4,4,8,,,,,,,,,867.9199792495929,None,,,,,,,,,,,szilva,868.9341076565906,None,4,2.233141421340406,868.9341076565906,None,868.9341076565906,None,868.9341076565906,None,kecske,871.2085333364084,None,871.2085333364084,None,down,1.844706947915256,871.2085333364084,None,873.0944794462994,None,4,1.1691107638180256,873.0944794462994,None,,,,,,,,,,,,,,,,,,,,,,,,,,,,,343063,2022_Jun_14_1319,palt,2021.1.2,52.358911590693836,
6,menta,triatlon,,,,,,,,,2,0,2,0,,,,,0,5,5,5,,,,,,,,,874.2969587286934,None,,,,,,,,,,,menta,875.3159609199502,None,4,1.767221212387085,875.3159609199502,None,875.3159609199502,None,875.3159609199502,None,triatlon,877.1288764635101,None,877.1288764635101,None,down,2.628475887235254,877.1288764635101,None,879.797692081891,None,4,1.0655956431291997,879.797692081891,None,,,,,,,,,,,,,,,,,,,,,,,,,,,,,343063,2022_Jun_14_1319,palt,2021.1.2,52.358911590693836,
2,kötény,tisztás,,,,,,,,,2,0,2,0,,,,,0,6,6,1,,,,,,,,,880.8894240963273,None,,,,,,,,,,,kötény,881.8926871777512,None,4,1.9153919024392962,881.8926871777512,None,881.8926871777512,None,881.8926871777512,None,tisztás,883.851876271423,None,883.851876271423,None,down,2.5936823366209865,883.851876271423,None,886.4801515596919,None,4,0.849040824919939,886.4801515596919,None,,,,,,,,,,,,,,,,,,,,,,,,,,,,,343063,2022_Jun_14_1319,palt,2021.1.2,52.358911590693836,
8,szalvéta,puska,,,,,,,,,2,0,2,0,,,,,0,7,7,7,,,,,,,,,887.3612540531904,None,,,,,,,,,,,szalvéta,888.3844305747189,None,4,2.278691134881228,888.3844305747189,None,888.3844305747189,None,888.3844305747189,None,puska,890.6901976321824,None,890.6901976321824,None,down,1.9789862181060016,890.6901976321824,None,892.7006776207127,None,4,0.8176080114208162,892.7006776207127,None,,,,,,,,,,,,,,,,,,,,,,,,,,,,,343063,2022_Jun_14_1319,palt,2021.1.2,52.358911590693836,
10,málna,dominó,,,,,,,,,2,0,2,0,,,,,0,8,8,9,,,,,,,,,893.5470185973682,None,,,,,,,,,,,dominó,894.5685542481951,None,4,1.906559937633574,894.5685542481951,None,894.5685542481951,None,894.5685542481951,None,mocsár,896.5103580742143,None,896.5103580742143,None,down,2.5907066254876554,896.5103580742143,None,899.1349787237123,None,4,2.5780598535202444,899.1349787237123,None,,,,,,,,,,,,,,,,,,,,,,,,,,,,,343063,2022_Jun_14_1319,palt,2021.1.2,52.358911590693836,
7,csavarhúzó,hering,,,,,,,,,2,0,2,0,,,,,0,9,9,6,,,,,,,,,901.7394536109641,None,,,,,,,,,,,hering,902.7463781726547,None,4,1.3445704160258174,902.7463781726547,None,902.7463781726547,None,902.7463781726547,None,csavarhúzó,904.1351407584734,None,904.1351407584734,None,down,2.5817275545559824,904.1351407584734,None,906.7584203477018,None,4,0.8198114926926792,906.7584203477018,None,,,,,,,,,,,,,,,,,,,,,,,,,,,,,343063,2022_Jun_14_1319,palt,2021.1.2,52.358911590693836,
,,,,,,,,,,,2,0,2,0,,,,,,,,,,,,,,,,,,,,,,,,,,,,,,,,,,,,,,,,,,,,,,,,,,,,,,,,,,,,,,,,,,,,,,,,,,,4,7.8088761903345585,907.6269942517392,None,907.6269942517392,None,,,343063,2022_Jun_14_1319,palt,2021.1.2,52.358911590693836,
2,kötény,tisztás,,,,,,,,,3,0,3,0,0,0,0,1,,,,,,,,,,,,,919.4767805589363,None,920.482347576879,None,920.482347576879,None,,,,,,,,,,,,,,,,,,,,,,,,,,,,,,,,,,,,,,,915.4586970810778,None,,,,,,,,,,,,,,,,,,,,,343063,2022_Jun_14_1319,palt,2021.1.2,52.358911590693836,
4,mocsár,ananász,,,,,,,,,3,0,3,0,0,1,1,3,,,,,,,,,,,,,926.4691024287604,None,927.4800252909772,None,927.4800252909772,None,,,,,,,,,,,,,,,,,,,,,,,,,,,,,,,,,,,,,,,,,,,,,,,,,,,,,,,,,,,,,343063,2022_Jun_14_1319,palt,2021.1.2,52.358911590693836,
10,málna,dominó,,,,,,,,,3,0,3,0,0,2,2,9,,,,,,,,,,,,,933.4709538505413,None,934.4832438980229,None,934.4832438980229,None,,,,,,,,,,,,,,,,,,,,,,,,,,,,,,,,,,,,,,,,,,,,,,,,,,,,,,,,,,,,,343063,2022_Jun_14_1319,palt,2021.1.2,52.358911590693836,
5,karton,hentes,,,,,,,,,3,0,3,0,0,3,3,4,,,,,,,,,,,,,940.4676531376317,None,941.4759654109366,None,941.4759654109366,None,,,,,,,,,,,,,,,,,,,,,,,,,,,,,,,,,,,,,,,,,,,,,,,,,,,,,,,,,,,,,343063,2022_Jun_14_1319,palt,2021.1.2,52.358911590693836,
3,fogó,limonádé,,,,,,,,,3,0,3,0,0,4,4,2,,,,,,,,,,,,,947.4694775026292,None,948.4801332103088,None,948.4801332103088,None,,,,,,,,,,,,,,,,,,,,,,,,,,,,,,,,,,,,,,,,,,,,,,,,,,,,,,,,,,,,,343063,2022_Jun_14_1319,palt,2021.1.2,52.358911590693836,
1,bagoly,kirakó,,,,,,,,,3,0,3,0,0,5,5,0,,,,,,,,,,,,,954.4699452565983,None,955.4833474629559,None,955.4833474629559,None,,,,,,,,,,,,,,,,,,,,,,,,,,,,,,,,,,,,,,,,,,,,,,,,,,,,,,,,,,,,,343063,2022_Jun_14_1319,palt,2021.1.2,52.358911590693836,
9,szilva,kecske,,,,,,,,,3,0,3,0,0,6,6,8,,,,,,,,,,,,,961.4696333166212,None,962.4806323754601,None,962.4806323754601,None,,,,,,,,,,,,,,,,,,,,,,,,,,,,,,,,,,,,,,,,,,,,,,,,,,,,,,,,,,,,,343063,2022_Jun_14_1319,palt,2021.1.2,52.358911590693836,
6,menta,triatlon,,,,,,,,,3,0,3,0,0,7,7,5,,,,,,,,,,,,,968.4746837527491,None,969.4761078520678,None,969.4761078520678,None,,,,,,,,,,,,,,,,,,,,,,,,,,,,,,,,,,,,,,,,,,,,,,,,,,,,,,,,,,,,,343063,2022_Jun_14_1319,palt,2021.1.2,52.358911590693836,
7,csavarhúzó,hering,,,,,,,,,3,0,3,0,0,8,8,6,,,,,,,,,,,,,975.4670802638866,None,976.4804025418125,None,976.4804025418125,None,,,,,,,,,,,,,,,,,,,,,,,,,,,,,,,,,,,,,,,,,,,,,,,,,,,,,,,,,,,,,343063,2022_Jun_14_1319,palt,2021.1.2,52.358911590693836,
8,szalvéta,puska,,,,,,,,,3,0,3,0,0,9,9,7,,,,,,,,,,,,,982.4645819477737,None,983.4765037633479,None,983.4765037633479,None,,,,,,,,,,,,,,,,,,,,,,,,,,,,,,,,,,,,,,,,,,,,,,,,,,,,,,,,,,,,,343063,2022_Jun_14_1319,palt,2021.1.2,52.358911590693836,
3,fogó,limonádé,,,,,,,,,3,0,3,0,,,,,0,0,0,2,,,,,,,,,998.6398521969095,None,,,,,,,,,,,limonádé,999.6278324145824,None,4,13.416865140665323,999.6278324145824,None,999.6278324145824,None,999.6278324145824,None, ,1013.0926840053871,None,1013.0926840053871,None,down,3.0949456454254687,1013.0926840053871,None,1016.2364726127125,None,4,2.1252675433643162,1016.2364726127125,None,,,,,,,994.6119035901502,None,989.4686107272282,None,u,3.103647298645228,989.4686107272282,None,992.5981882000342,None,4,1.9837937578558922,992.5981882000342,None,,,,,,,,,343063,2022_Jun_14_1319,palt,2021.1.2,52.358911590693836,
10,málna,dominó,,,,,,,,,3,0,3,0,,,,,0,1,1,9,,,,,,,,,1018.3878902117722,None,,,,,,,,,,,dominó,1019.4030617349781,None,4,8.666519145481288,1019.4030617349781,None,1019.4030617349781,None,1019.4030617349781,None,málna,1028.1167301014066,None,1028.1167301014066,None,down,3.3027191925793886,1028.1167301014066,None,1031.4730777149089,None,4,0.9584924392402172,1031.4730777149089,None,,,,,,,,,,,,,,,,,,,,,,,,,,,,,343063,2022_Jun_14_1319,palt,2021.1.2,52.358911590693836,
6,menta,triatlon,,,,,,,,,3,0,3,0,,,,,0,2,2,5,,,,,,,,,1032.466199181974,None,,,,,,,,,,,menta,1033.4804806043394,None,4,4.044253438245505,1033.4804806043394,None,1033.4804806043394,None,1033.4804806043394,None,triatlon,1037.5723976679146,None,1037.5723976679146,None,down,2.326941007748246,1037.5723976679146,None,1039.9370724824257,None,4,1.4113982669077814,1039.9370724824257,None,,,,,,,,,,,,,,,,,,,,,,,,,,,,,343063,2022_Jun_14_1319,palt,2021.1.2,52.358911590693836,
1,bagoly,kirakó,,,,,,,,,3,0,3,0,,,,,0,3,3,0,,,,,,,,,1041.379356191028,None,,,,,,,,,,,bagoly,1042.3993281009607,None,4,6.585035109426826,1042.3993281009607,None,1042.3993281009607,None,1042.3993281009607,None,kirakó,1049.0154340127483,None,1049.0154340127483,None,down,4.787759776227176,1049.0154340127483,None,1053.8441465138458,None,4,1.1031260518357158,1053.8441465138458,None,,,,,,,,,,,,,,,,,,,,,,,,,,,,,343063,2022_Jun_14_1319,palt,2021.1.2,52.358911590693836,
2,kötény,tisztás,,,,,,,,,3,0,3,0,,,,,0,4,4,1,,,,,,,,,1054.972195389215,None,,,,,,,,,,,kötény,1055.9911639918573,None,4,1.7379601574502885,1055.9911639918573,None,1055.9911639918573,None,1055.9911639918573,None,tisztás,1057.7717665731907,None,1057.7717665731907,None,down,2.0314368568360806,1057.7717665731907,None,1059.8328507547267,None,4,0.9732425482943654,1059.8328507547267,None,,,,,,,,,,,,,,,,,,,,,,,,,,,,,343063,2022_Jun_14_1319,palt,2021.1.2,52.358911590693836,
5,karton,hentes,,,,,,,,,3,0,3,0,,,,,0,5,5,4,,,,,,,,,1060.8371740570292,None,,,,,,,,,,,hentes,1061.8439160580747,None,4,2.1855409303680062,1061.8439160580747,None,1061.8439160580747,None,1061.8439160580747,None,karton,1064.0693075060844,None,1064.0693075060844,None,down,2.150124122854322,1064.0693075060844,None,1066.2416446525604,None,4,0.9064314919523895,1066.2416446525604,None,,,,,,,,,,,,,,,,,,,,,,,,,,,,,343063,2022_Jun_14_1319,palt,2021.1.2,52.358911590693836,
4,mocsár,ananász,,,,,,,,,3,0,3,0,,,,,0,6,6,3,,,,,,,,,1067.1876769238152,None,,,,,,,,,,,mocsár,1068.2141619333997,None,4,1.2130964249372482,1068.2141619333997,None,1068.2141619333997,None,1068.2141619333997,None,ananász,1069.4672544272617,None,1069.4672544272617,None,down,2.0798696014098823,1069.4672544272617,None,1071.5712046464905,None,4,0.965135539881885,1071.5712046464905,None,,,,,,,,,,,,,,,,,,,,,,,,,,,,,343063,2022_Jun_14_1319,palt,2021.1.2,52.358911590693836,
9,szilva,kecske,,,,,,,,,3,0,3,0,,,,,0,7,7,8,,,,,,,,,1072.5586670381017,None,,,,,,,,,,,szilva,1073.5714593608864,None,4,3.602649589534849,1073.5714593608864,None,1073.5714593608864,None,1073.5714593608864,None,kecske,1077.2042871634476,None,1077.2042871634476,None,down,1.990743510890752,1077.2042871634476,None,1079.2282253401354,None,4,0.7197790234349668,1079.2282253401354,None,,,,,,,,,,,,,,,,,,,,,,,,,,,,,343063,2022_Jun_14_1319,palt,2021.1.2,52.358911590693836,
8,szalvéta,puska,,,,,,,,,3,0,3,0,,,,,0,8,8,7,,,,,,,,,1079.9780186763965,None,,,,,,,,,,,szalvéta,1080.9976015170105,None,4,1.4503835644572973,1080.9976015170105,None,1080.9976015170105,None,1080.9976015170105,None,puska,1082.488903906662,None,1082.488903906662,None,down,1.7460587690584362,1082.488903906662,None,1084.2617869940586,None,4,0.8071491708979011,1084.2617869940586,None,,,,,,,,,,,,,,,,,,,,,,,,,,,,,343063,2022_Jun_14_1319,palt,2021.1.2,52.358911590693836,
7,csavarhúzó,hering,,,,,,,,,3,0,3,0,,,,,0,9,9,6,,,,,,,,,1085.1146280081011,None,,,,,,,,,,,hering,1086.1288892147131,None,4,1.016924667172134,1086.1288892147131,None,1086.1288892147131,None,1086.1288892147131,None,csavarhúzó,1087.1844262829982,None,1087.1844262829982,None,down,3.4824959272518754,1087.1844262829982,None,1090.6930405432358,None,4,0.5779276760295033,1090.6930405432358,None,,,,,,,,,,,,,,,,,,,,,,,,,,,,,343063,2022_Jun_14_1319,palt,2021.1.2,52.358911590693836,
,,,,,,,,,,,3,0,3,0,,,,,,,,,,,,,,,,,,,,,,,,,,,,,,,,,,,,,,,,,,,,,,,,,,,,,,,,,,,,,,,,,,,,,,,,,,,4,9.44287773175165,1091.3199418042786,None,1091.3199418042786,None,,,343063,2022_Jun_14_1319,palt,2021.1.2,52.358911590693836,
,,,,,,,,,,,,,,,,,,,,,,,,,,,,,,,,,,,,,,,,,,,,,,,,,,,,,,,,,,,,,,,,,,,,,,,,,,,,,,,,,,,,,,,,,,,,,,,1100.800121043343,None,,,,,,
