itemno,wordA,wordB,enc_gyak.thisRepN,enc_gyak.thisTrialN,enc_gyak.thisN,enc_gyak.thisIndex,rec_gyak.thisRepN,rec_gyak.thisTrialN,rec_gyak.thisN,rec_gyak.thisIndex,repeat_task.thisRepN,repeat_task.thisTrialN,repeat_task.thisN,repeat_task.thisIndex,enc_loop.thisRepN,enc_loop.thisTrialN,enc_loop.thisN,enc_loop.thisIndex,test_loop.thisRepN,test_loop.thisTrialN,test_loop.thisN,test_loop.thisIndex,int.started,int.stopped,int_key.keys,int_key.rt,int_key.started,int_key.stopped,prepare_gyak_text.started,prepare_gyak_text.stopped,fix.started,fix.stopped,word1.started,word1.stopped,word2.started,word2.stopped,gykrec_inst.started,gykrec_inst.stopped,gyakrec_inst.keys,gyakrec_inst.rt,gyakrec_inst.started,gyakrec_inst.stopped,cueword,cueword1.started,cueword1.stopped,cue_resp.keys,cue_resp.started,cue_resp.stopped,cue_cont_text.started,cue_cont_text.stopped,cue_space.started,cue_space.stopped,test_ansbox.text,test_ansbox.started,test_ansbox.stopped,ans_text.started,ans_text.stopped,ans_continue.keys,ans_continue.rt,ans_continue.started,ans_continue.stopped,feedback_text.started,feedback_text.stopped,feedback_cont.keys,feedback_cont.rt,feedback_cont.started,feedback_cont.stopped,cue_resp.rt,main_prep.started,main_prep.stopped,main_prep_resp.keys,main_prep_resp.rt,main_prep_resp.started,main_prep_resp.stopped,preparation.started,preparation.stopped,break_text.started,break_text.stopped,key_resp.keys,key_resp.rt,key_resp.started,key_resp.stopped,test_instruction.started,test_instruction.stopped,test_i_key.keys,test_i_key.rt,test_i_key.started,test_i_key.stopped,rep_routine.keys,rep_routine.rt,rep_routine.started,rep_routine.stopped,encrep_textbox.started,encrep_textbox.stopped,end_text.started,end_text.stopped,Résztvevő kódja,date,expName,psychopyVersion,frameRate,
,,,,,,,,,,,,,,,,,,,,,,,48.46087288390845,None,4,8.569435330107808,48.46087288390845,None,,,,,,,,,,,,,,,,,,,,,,,,,,,,,,,,,,,,,,,,,,,,,,,,,,,,,,,,,,,,,,,,,,,,,357990,2022_Jun_29_1246,palt,2021.1.2,59.86464499308047,
3,majoránna,szikla,0,0,0,2,,,,,,,,,,,,,,,,,,,,,,,57.06757862120867,None,60.22025952907279,None,61.09150529047474,None,61.09150529047474,None,,,,,,,,,,,,,,,,,,,,,,,,,,,,,,,,,,,,,,,,,,,,,,,,,,,,,,,,,,,,,357990,2022_Jun_29_1246,palt,2021.1.2,59.86464499308047,
1,sapka,beton,0,1,1,0,,,,,,,,,,,,,,,,,,,,,,,,,67.08221956714988,None,68.0967090530321,None,68.0967090530321,None,,,,,,,,,,,,,,,,,,,,,,,,,,,,,,,,,,,,,,,,,,,,,,,,,,,,,,,,,,,,,357990,2022_Jun_29_1246,palt,2021.1.2,59.86464499308047,
4,kard,harcsa,0,2,2,3,,,,,,,,,,,,,,,,,,,,,,,,,74.08168836776167,None,75.10403201403096,None,75.10403201403096,None,,,,,,,,,,,,,,,,,,,,,,,,,,,,,,,,,,,,,,,,,,,,,,,,,,,,,,,,,,,,,357990,2022_Jun_29_1246,palt,2021.1.2,59.86464499308047,
2,lepke,szintetizátor,0,3,3,1,,,,,,,,,,,,,,,,,,,,,,,,,81.08139446657151,None,82.08548389235511,None,82.08548389235511,None,,,,,,,,,,,,,,,,,,,,,,,,,,,,,,,,,,,,,,,,,,,,,,,,,,,,,,,,,,,,,357990,2022_Jun_29_1246,palt,2021.1.2,59.86464499308047,
,,,,,,,,,,,,,,,,,,,,,,,,,,,,,,,,,,,,,88.0677303923294,None,4,8.323493499774486,88.0677303923294,None,,,,,,,,,,,,,,,,,,,,,,,,,,,,,,,,,,,,,,,,,,,,,,,,,,,,,,,357990,2022_Jun_29_1246,palt,2021.1.2,59.86464499308047,
1,sapka,beton,,,,,0,0,0,0,,,,,,,,,,,,,,,,,,,,,96.43343028472736,None,,,,,,,,,,,beton,97.45740547124296,None,None,97.45740547124296,None,97.45740547124296,None,97.45740547124296,None, ,112.54068121640012,None,112.54068121640012,None,down,3.763144537806511,112.54068121640012,None,116.36825418937951,None,4,5.8237407500855625,116.36825418937951,None,,,,,,,,,,,,,,,,,,,,,,,,,,,,,,357990,2022_Jun_29_1246,palt,2021.1.2,59.86464499308047,
4,kard,harcsa,,,,,0,1,1,3,,,,,,,,,,,,,,,,,,,,,122.25816283468157,None,,,,,,,,,,,kard,123.23202055413276,None,4,123.23202055413276,None,123.23202055413276,None,123.23202055413276,None,harcsa,126.79181063687429,None,126.79181063687429,None,down,3.5437853732146323,126.79181063687429,None,130.38471110304818,None,4,2.7108204788528383,130.38471110304818,None,3.5154221947304904,,,,,,,,,,,,,,,,,,,,,,,,,,,,,357990,2022_Jun_29_1246,palt,2021.1.2,59.86464499308047,
2,lepke,szintetizátor,,,,,0,2,2,1,,,,,,,,,,,,,,,,,,,,,133.1238502864726,None,,,,,,,,,,,szintetizátor,134.1473978389986,None,4,134.1473978389986,None,134.1473978389986,None,134.1473978389986,None,,144.43259087763727,None,144.43259087763727,None,down,1.358794302213937,144.43259087763727,None,145.84097051480785,None,4,5.027395637240261,145.84097051480785,None,10.247283513192087,,,,,,,,,,,,,,,,,,,,,,,,,,,,,357990,2022_Jun_29_1246,palt,2021.1.2,59.86464499308047,
3,majoránna,szikla,,,,,0,3,3,2,,,,,,,,,,,,,,,,,,,,,150.90707216551527,None,,,,,,,,,,,majoránna,151.93384050251916,None,None,151.93384050251916,None,151.93384050251916,None,151.93384050251916,None, ,166.91942192614079,None,166.91942192614079,None,down,3.319831086322665,166.91942192614079,None,170.26284099556506,None,4,1.7521678716875613,170.26284099556506,None,,,,,,,,,,,,,,,,,,,,,,,,,,,,,,357990,2022_Jun_29_1246,palt,2021.1.2,59.86464499308047,
,,,,,,,,,,,,,,,,,,,,,,,,,,,,,,,,,,,,,,,,,,,,,,,,,,,,,,,,,,,,,,,,,,,,,172.0430305604823,None,4,37.827642327640206,172.0430305604823,None,,,,,,,,,,,,,,,,,,,,,,,357990,2022_Jun_29_1246,palt,2021.1.2,59.86464499308047,
2,kötény,tisztás,,,,,,,,,0,0,0,0,0,0,0,1,,,,,,,,,,,,,213.94526937231421,None,214.9053100021556,None,214.9053100021556,None,,,,,,,,,,,,,,,,,,,,,,,,,,,,,,,,,,,,,,,209.89502314850688,None,,,,,,,,,,,,,,,,,,,,,357990,2022_Jun_29_1246,palt,2021.1.2,59.86464499308047,
7,csavarhúzó,hering,,,,,,,,,0,0,0,0,0,1,1,6,,,,,,,,,,,,,220.89868711680174,None,221.90849346574396,None,221.90849346574396,None,,,,,,,,,,,,,,,,,,,,,,,,,,,,,,,,,,,,,,,,,,,,,,,,,,,,,,,,,,,,,357990,2022_Jun_29_1246,palt,2021.1.2,59.86464499308047,
4,mocsár,ananász,,,,,,,,,0,0,0,0,0,2,2,3,,,,,,,,,,,,,227.895269154571,None,228.90349154686555,None,228.90349154686555,None,,,,,,,,,,,,,,,,,,,,,,,,,,,,,,,,,,,,,,,,,,,,,,,,,,,,,,,,,,,,,357990,2022_Jun_29_1246,palt,2021.1.2,59.86464499308047,
8,szalvéta,puska,,,,,,,,,0,0,0,0,0,3,3,7,,,,,,,,,,,,,234.8953997772187,None,235.9145612041466,None,235.9145612041466,None,,,,,,,,,,,,,,,,,,,,,,,,,,,,,,,,,,,,,,,,,,,,,,,,,,,,,,,,,,,,,357990,2022_Jun_29_1246,palt,2021.1.2,59.86464499308047,
3,fogó,limonádé,,,,,,,,,0,0,0,0,0,4,4,2,,,,,,,,,,,,,241.89791022241116,None,242.90819614334032,None,242.90819614334032,None,,,,,,,,,,,,,,,,,,,,,,,,,,,,,,,,,,,,,,,,,,,,,,,,,,,,,,,,,,,,,357990,2022_Jun_29_1246,palt,2021.1.2,59.86464499308047,
10,málna,dominó,,,,,,,,,0,0,0,0,0,5,5,9,,,,,,,,,,,,,248.8975793113932,None,249.90986096160486,None,249.90986096160486,None,,,,,,,,,,,,,,,,,,,,,,,,,,,,,,,,,,,,,,,,,,,,,,,,,,,,,,,,,,,,,357990,2022_Jun_29_1246,palt,2021.1.2,59.86464499308047,
1,bagoly,kirakó,,,,,,,,,0,0,0,0,0,6,6,0,,,,,,,,,,,,,255.89863953273743,None,256.91112644737586,None,256.91112644737586,None,,,,,,,,,,,,,,,,,,,,,,,,,,,,,,,,,,,,,,,,,,,,,,,,,,,,,,,,,,,,,357990,2022_Jun_29_1246,palt,2021.1.2,59.86464499308047,
9,szilva,kecske,,,,,,,,,0,0,0,0,0,7,7,8,,,,,,,,,,,,,262.89910790883005,None,263.91113204555586,None,263.91113204555586,None,,,,,,,,,,,,,,,,,,,,,,,,,,,,,,,,,,,,,,,,,,,,,,,,,,,,,,,,,,,,,357990,2022_Jun_29_1246,palt,2021.1.2,59.86464499308047,
6,menta,triatlon,,,,,,,,,0,0,0,0,0,8,8,5,,,,,,,,,,,,,269.8950847275555,None,270.90956737147644,None,270.90956737147644,None,,,,,,,,,,,,,,,,,,,,,,,,,,,,,,,,,,,,,,,,,,,,,,,,,,,,,,,,,,,,,357990,2022_Jun_29_1246,palt,2021.1.2,59.86464499308047,
5,karton,hentes,,,,,,,,,0,0,0,0,0,9,9,4,,,,,,,,,,,,,276.89764835499227,None,277.9084959537722,None,277.9084959537722,None,,,,,,,,,,,,,,,,,,,,,,,,,,,,,,,,,,,,,,,,,,,,,,,,,,,,,,,,,,,,,357990,2022_Jun_29_1246,palt,2021.1.2,59.86464499308047,
7,csavarhúzó,hering,,,,,,,,,0,0,0,0,,,,,0,0,0,6,,,,,,,,,314.5439626472071,None,,,,,,,,,,,csavarhúzó,315.54487918363884,None,4,315.54487918363884,None,315.54487918363884,None,315.54487918363884,None,,324.4326549451798,None,324.4326549451798,None,down,1.7087062560021877,324.4326549451798,None,326.17430301895365,None,4,2.271996407303959,326.17430301895365,None,8.845358817838132,,,,,,,310.5194854955189,None,283.8948321901262,None,u,15.510862215887755,283.8948321901262,None,299.4691773816012,None,4,11.018360896036029,299.4691773816012,None,,,,,,,,,357990,2022_Jun_29_1246,palt,2021.1.2,59.86464499308047,
4,mocsár,ananász,,,,,,,,,0,0,0,0,,,,,0,1,1,3,,,,,,,,,328.4827736564912,None,,,,,,,,,,,mocsár,329.5102134565823,None,4,329.5102134565823,None,329.5102134565823,None,329.5102134565823,None,,337.08249263092875,None,337.08249263092875,None,down,1.3307091635651886,337.08249263092875,None,338.43865301832557,None,4,1.988744982983917,338.43865301832557,None,7.533992086537182,,,,,,,,,,,,,,,,,,,,,,,,,,,,,357990,2022_Jun_29_1246,palt,2021.1.2,59.86464499308047,
3,fogó,limonádé,,,,,,,,,0,0,0,0,,,,,0,2,2,2,,,,,,,,,340.448578171432,None,,,,,,,,,,,fogó,341.480446705129,None,None,341.480446705129,None,341.480446705129,None,341.480446705129,None, ,356.46892204508185,None,356.46892204508185,None,down,1.688108290079981,356.46892204508185,None,358.1883626934141,None,4,0.8886176566593349,358.1883626934141,None,,,,,,,,,,,,,,,,,,,,,,,,,,,,,,357990,2022_Jun_29_1246,palt,2021.1.2,59.86464499308047,
8,szalvéta,puska,,,,,,,,,0,0,0,0,,,,,0,3,3,7,,,,,,,,,359.10500888573006,None,,,,,,,,,,,szalvéta,360.14879177045077,None,4,360.14879177045077,None,360.14879177045077,None,360.14879177045077,None,pohár,367.76728776749223,None,367.76728776749223,None,down,2.22943422337994,367.76728776749223,None,370.0387588846497,None,4,4.963949049357325,370.0387588846497,None,7.584345607552677,,,,,,,,,,,,,,,,,,,,,,,,,,,,,357990,2022_Jun_29_1246,palt,2021.1.2,59.86464499308047,
10,málna,dominó,,,,,,,,,0,0,0,0,,,,,0,4,4,9,,,,,,,,,375.043493648991,None,,,,,,,,,,,dominó,376.0627430905588,None,4,376.0627430905588,None,376.0627430905588,None,376.0627430905588,None, mocsár,380.05642281472683,None,380.05642281472683,None,down,1.9247025069780648,380.05642281472683,None,382.0033710007556,None,4,5.938254307489842,382.0033710007556,None,3.964017470832914,,,,,,,,,,,,,,,,,,,,,,,,,,,,,357990,2022_Jun_29_1246,palt,2021.1.2,59.86464499308047,
9,szilva,kecske,,,,,,,,,0,0,0,0,,,,,0,5,5,8,,,,,,,,,387.97351436829194,None,,,,,,,,,,,kecske,388.9934697947465,None,4,388.9934697947465,None,388.9934697947465,None,388.9934697947465,None, szalvéta,391.91911620646715,None,391.91911620646715,None,down,3.853778076823801,391.91911620646715,None,395.8066807948053,None,4,2.475815816782415,395.8066807948053,None,2.888143993448466,,,,,,,,,,,,,,,,,,,,,,,,,,,,,357990,2022_Jun_29_1246,palt,2021.1.2,59.86464499308047,
5,karton,hentes,,,,,,,,,0,0,0,0,,,,,0,6,6,4,,,,,,,,,398.31442081555724,None,,,,,,,,,,,karton,399.3268862706609,None,4,399.3268862706609,None,399.3268862706609,None,399.3268862706609,None, ,407.0811462835409,None,407.0811462835409,None,down,1.6832774244248867,407.0811462835409,None,408.80469812778756,None,4,1.8489580964669585,408.80469812778756,None,7.711395218968391,,,,,,,,,,,,,,,,,,,,,,,,,,,,,357990,2022_Jun_29_1246,palt,2021.1.2,59.86464499308047,
1,bagoly,kirakó,,,,,,,,,0,0,0,0,,,,,0,7,7,0,,,,,,,,,410.6906585441902,None,,,,,,,,,,,kirakó,411.7141883694567,None,4,411.7141883694567,None,411.7141883694567,None,411.7141883694567,None, beton,417.9247258324176,None,417.9247258324176,None,down,2.695564051158726,417.9247258324176,None,420.6456888578832,None,4,3.4054987831041217,420.6456888578832,None,6.173131768126041,,,,,,,,,,,,,,,,,,,,,,,,,,,,,357990,2022_Jun_29_1246,palt,2021.1.2,59.86464499308047,
6,menta,triatlon,,,,,,,,,0,0,0,0,,,,,0,8,8,5,,,,,,,,,424.0847259690054,None,,,,,,,,,,,triatlon,425.10988018196076,None,4,425.10988018196076,None,425.10988018196076,None,425.10988018196076,None, ,431.36229250440374,None,431.36229250440374,None,down,1.353771856520325,431.36229250440374,None,432.74995972495526,None,4,1.4641987881623209,432.74995972495526,None,6.213294536340982,,,,,,,,,,,,,,,,,,,,,,,,,,,,,357990,2022_Jun_29_1246,palt,2021.1.2,59.86464499308047,
2,kötény,tisztás,,,,,,,,,0,0,0,0,,,,,0,9,9,1,,,,,,,,,434.2488830201328,None,,,,,,,,,,,tisztás,435.2726563634351,None,4,435.2726563634351,None,435.2726563634351,None,435.2726563634351,None, kecske,439.67765566986054,None,439.67765566986054,None,down,2.1263514012098312,439.67765566986054,None,441.8283187667839,None,4,2.828695084899664,441.8283187667839,None,4.3652669712901115,,,,,,,,,,,,,,,,,,,,,,,,,,,,,357990,2022_Jun_29_1246,palt,2021.1.2,59.86464499308047,
,,,,,,,,,,,0,0,0,0,,,,,,,,,,,,,,,,,,,,,,,,,,,,,,,,,,,,,,,,,,,,,,,,,,,,,,,,,,,,,,,,,,,,,,,,,,,4,52.47533717798069,444.7092318572104,None,444.7092318572104,None,,,357990,2022_Jun_29_1246,palt,2021.1.2,59.86464499308047,
5,karton,hentes,,,,,,,,,1,0,1,0,0,0,0,4,,,,,,,,,,,,,501.22889555990696,None,502.2192761260085,None,502.2192761260085,None,,,,,,,,,,,,,,,,,,,,,,,,,,,,,,,,,,,,,,,497.21003798628226,None,,,,,,,,,,,,,,,,,,,,,357990,2022_Jun_29_1246,palt,2021.1.2,59.86464499308047,
8,szalvéta,puska,,,,,,,,,1,0,1,0,0,1,1,7,,,,,,,,,,,,,508.2257338669151,None,509.21864447183907,None,509.21864447183907,None,,,,,,,,,,,,,,,,,,,,,,,,,,,,,,,,,,,,,,,,,,,,,,,,,,,,,,,,,,,,,357990,2022_Jun_29_1246,palt,2021.1.2,59.86464499308047,
4,mocsár,ananász,,,,,,,,,1,0,1,0,0,2,2,3,,,,,,,,,,,,,515.2103082514368,None,516.230125901755,None,516.230125901755,None,,,,,,,,,,,,,,,,,,,,,,,,,,,,,,,,,,,,,,,,,,,,,,,,,,,,,,,,,,,,,357990,2022_Jun_29_1246,palt,2021.1.2,59.86464499308047,
2,kötény,tisztás,,,,,,,,,1,0,1,0,0,3,3,1,,,,,,,,,,,,,522.2097639897838,None,523.2190633974969,None,523.2190633974969,None,,,,,,,,,,,,,,,,,,,,,,,,,,,,,,,,,,,,,,,,,,,,,,,,,,,,,,,,,,,,,357990,2022_Jun_29_1246,palt,2021.1.2,59.86464499308047,
10,málna,dominó,,,,,,,,,1,0,1,0,0,4,4,9,,,,,,,,,,,,,529.21058971202,None,530.2373459199443,None,530.2373459199443,None,,,,,,,,,,,,,,,,,,,,,,,,,,,,,,,,,,,,,,,,,,,,,,,,,,,,,,,,,,,,,357990,2022_Jun_29_1246,palt,2021.1.2,59.86464499308047,
7,csavarhúzó,hering,,,,,,,,,1,0,1,0,0,5,5,6,,,,,,,,,,,,,536.2119335718453,None,537.2294510174543,None,537.2294510174543,None,,,,,,,,,,,,,,,,,,,,,,,,,,,,,,,,,,,,,,,,,,,,,,,,,,,,,,,,,,,,,357990,2022_Jun_29_1246,palt,2021.1.2,59.86464499308047,
3,fogó,limonádé,,,,,,,,,1,0,1,0,0,6,6,2,,,,,,,,,,,,,543.2121929512359,None,544.2302941563539,None,544.2302941563539,None,,,,,,,,,,,,,,,,,,,,,,,,,,,,,,,,,,,,,,,,,,,,,,,,,,,,,,,,,,,,,357990,2022_Jun_29_1246,palt,2021.1.2,59.86464499308047,
6,menta,triatlon,,,,,,,,,1,0,1,0,0,7,7,5,,,,,,,,,,,,,550.2253416874446,None,551.2362629948184,None,551.2362629948184,None,,,,,,,,,,,,,,,,,,,,,,,,,,,,,,,,,,,,,,,,,,,,,,,,,,,,,,,,,,,,,357990,2022_Jun_29_1246,palt,2021.1.2,59.86464499308047,
1,bagoly,kirakó,,,,,,,,,1,0,1,0,0,8,8,0,,,,,,,,,,,,,557.2085787435062,None,558.2253451086581,None,558.2253451086581,None,,,,,,,,,,,,,,,,,,,,,,,,,,,,,,,,,,,,,,,,,,,,,,,,,,,,,,,,,,,,,357990,2022_Jun_29_1246,palt,2021.1.2,59.86464499308047,
9,szilva,kecske,,,,,,,,,1,0,1,0,0,9,9,8,,,,,,,,,,,,,564.2099810722284,None,565.2314439476468,None,565.2314439476468,None,,,,,,,,,,,,,,,,,,,,,,,,,,,,,,,,,,,,,,,,,,,,,,,,,,,,,,,,,,,,,357990,2022_Jun_29_1246,palt,2021.1.2,59.86464499308047,
3,fogó,limonádé,,,,,,,,,1,0,1,0,,,,,0,0,0,2,,,,,,,,,582.6064364057966,None,,,,,,,,,,,fogó,583.5974629330449,None,4,583.5974629330449,None,583.5974629330449,None,583.5974629330449,None, ,586.3752362872474,None,586.3752362872474,None,down,2.4992022677324712,586.3752362872474,None,588.8972589746118,None,4,1.3081356836482882,588.8972589746118,None,2.750888079404831,,,,,,,578.5811413070187,None,571.2082478324883,None,u,2.8983633588068187,571.2082478324883,None,574.1357086566277,None,4,4.412649757694453,574.1357086566277,None,,,,,,,,,357990,2022_Jun_29_1246,palt,2021.1.2,59.86464499308047,
4,mocsár,ananász,,,,,,,,,1,0,1,0,,,,,0,1,1,3,,,,,,,,,590.2297545601614,None,,,,,,,,,,,mocsár,591.2510809036903,None,4,591.2510809036903,None,591.2510809036903,None,591.2510809036903,None, ananász,595.960485058371,None,595.960485058371,None,down,2.097859777044505,595.960485058371,None,598.0897894673981,None,4,1.85144925955683,598.0897894673981,None,4.6680881744250655,,,,,,,,,,,,,,,,,,,,,,,,,,,,,357990,2022_Jun_29_1246,palt,2021.1.2,59.86464499308047,
7,csavarhúzó,hering,,,,,,,,,1,0,1,0,,,,,0,2,2,6,,,,,,,,,599.977382668294,None,,,,,,,,,,,csavarhúzó,600.9990097549744,None,4,600.9990097549744,None,600.9990097549744,None,600.9990097549744,None,hering,603.3716581566259,None,603.3716581566259,None,down,2.8945507290773094,603.3716581566259,None,606.2950158710591,None,4,0.31408803863450885,606.2950158710591,None,2.3381711444817483,,,,,,,,,,,,,,,,,,,,,,,,,,,,,357990,2022_Jun_29_1246,palt,2021.1.2,59.86464499308047,
10,málna,dominó,,,,,,,,,1,0,1,0,,,,,0,3,3,9,,,,,,,,,606.6342248441651,None,,,,,,,,,,,dominó,607.656600213144,None,4,607.656600213144,None,607.656600213144,None,607.656600213144,None,,620.1832208218984,None,620.1832208218984,None,down,1.3952632453292608,620.1832208218984,None,621.620901633054,None,4,1.803052902687341,621.620901633054,None,12.491719760466367,,,,,,,,,,,,,,,,,,,,,,,,,,,,,357990,2022_Jun_29_1246,palt,2021.1.2,59.86464499308047,
2,kötény,tisztás,,,,,,,,,1,0,1,0,,,,,0,4,4,1,,,,,,,,,623.4492701608688,None,,,,,,,,,,,tisztás,624.4763802941889,None,None,624.4763802941889,None,624.4763802941889,None,624.4763802941889,None, ,639.4562028087676,None,639.4562028087676,None,down,1.3694565407931805,639.4562028087676,None,640.8631511935964,None,4,0.04155794391408563,640.8631511935964,None,,,,,,,,,,,,,,,,,,,,,,,,,,,,,,357990,2022_Jun_29_1246,palt,2021.1.2,59.86464499308047,
8,szalvéta,puska,,,,,,,,,1,0,1,0,,,,,0,5,5,7,,,,,,,,,640.944366209209,None,,,,,,,,,,,szalvéta,641.9613879104145,None,4,641.9613879104145,None,641.9613879104145,None,641.9613879104145,None,puska,644.9146806304343,None,644.9146806304343,None,down,1.7349051400087774,644.9146806304343,None,646.7018037759699,None,4,1.5038885152898729,646.7018037759699,None,2.916349803097546,,,,,,,,,,,,,,,,,,,,,,,,,,,,,357990,2022_Jun_29_1246,palt,2021.1.2,59.86464499308047,
1,bagoly,kirakó,,,,,,,,,1,0,1,0,,,,,0,6,6,0,,,,,,,,,648.2357274414971,None,,,,,,,,,,,kirakó,649.248492706567,None,4,649.248492706567,None,649.248492706567,None,649.248492706567,None, ,658.1238879184239,None,658.1238879184239,None,down,1.197660546284169,658.1238879184239,None,659.3760225120932,None,4,1.4866046351380646,659.3760225120932,None,8.844329074956477,,,,,,,,,,,,,,,,,,,,,,,,,,,,,357990,2022_Jun_29_1246,palt,2021.1.2,59.86464499308047,
5,karton,hentes,,,,,,,,,1,0,1,0,,,,,0,7,7,4,,,,,,,,,660.8966127028689,None,,,,,,,,,,,karton,661.9190807519481,None,4,661.9190807519481,None,661.9190807519481,None,661.9190807519481,None,hering,665.2656011790968,None,665.2656011790968,None,down,2.039892192929983,665.2656011790968,None,667.3356233788654,None,4,1.1278986590914428,667.3356233788654,None,3.310389859136194,,,,,,,,,,,,,,,,,,,,,,,,,,,,,357990,2022_Jun_29_1246,palt,2021.1.2,59.86464499308047,
9,szilva,kecske,,,,,,,,,1,0,1,0,,,,,0,8,8,8,,,,,,,,,668.4895330737345,None,,,,,,,,,,,kecske,669.5098837893456,None,4,669.5098837893456,None,669.5098837893456,None,669.5098837893456,None,szilva,671.734159657266,None,671.734159657266,None,down,1.8272498371079564,671.734159657266,None,673.6171894585714,None,4,2.2131536500528455,673.6171894585714,None,2.181463012471795,,,,,,,,,,,,,,,,,,,,,,,,,,,,,357990,2022_Jun_29_1246,palt,2021.1.2,59.86464499308047,
6,menta,triatlon,,,,,,,,,1,0,1,0,,,,,0,9,9,5,,,,,,,,,675.8728978289291,None,,,,,,,,,,,triatlon,676.8963900222443,None,4,676.8963900222443,None,676.8963900222443,None,676.8963900222443,None,menta,680.2076419917867,None,680.2076419917867,None,down,1.4655603747814894,680.2076419917867,None,681.7119052698836,None,4,0.9914224385283887,681.7119052698836,None,3.2649126104079187,,,,,,,,,,,,,,,,,,,,,,,,,,,,,357990,2022_Jun_29_1246,palt,2021.1.2,59.86464499308047,
,,,,,,,,,,,1,0,1,0,,,,,,,,,,,,,,,,,,,,,,,,,,,,,,,,,,,,,,,,,,,,,,,,,,,,,,,,,,,,,,,,,,,,,,,,,,,4,12.949593607801944,682.7595919095911,None,682.7595919095911,None,,,357990,2022_Jun_29_1246,palt,2021.1.2,59.86464499308047,
5,karton,hentes,,,,,,,,,2,0,2,0,0,0,0,4,,,,,,,,,,,,,699.7610312481411,None,700.7597132022493,None,700.7597132022493,None,,,,,,,,,,,,,,,,,,,,,,,,,,,,,,,,,,,,,,,695.7470779377036,None,,,,,,,,,,,,,,,,,,,,,357990,2022_Jun_29_1246,palt,2021.1.2,59.86464499308047,
9,szilva,kecske,,,,,,,,,2,0,2,0,0,1,1,8,,,,,,,,,,,,,706.7399916527793,None,707.7554527232423,None,707.7554527232423,None,,,,,,,,,,,,,,,,,,,,,,,,,,,,,,,,,,,,,,,,,,,,,,,,,,,,,,,,,,,,,357990,2022_Jun_29_1246,palt,2021.1.2,59.86464499308047,
3,fogó,limonádé,,,,,,,,,2,0,2,0,0,2,2,2,,,,,,,,,,,,,713.741933577694,None,714.7545722634532,None,714.7545722634532,None,,,,,,,,,,,,,,,,,,,,,,,,,,,,,,,,,,,,,,,,,,,,,,,,,,,,,,,,,,,,,357990,2022_Jun_29_1246,palt,2021.1.2,59.86464499308047,
8,szalvéta,puska,,,,,,,,,2,0,2,0,0,3,3,7,,,,,,,,,,,,,720.7502915686928,None,721.7643167218193,None,721.7643167218193,None,,,,,,,,,,,,,,,,,,,,,,,,,,,,,,,,,,,,,,,,,,,,,,,,,,,,,,,,,,,,,357990,2022_Jun_29_1246,palt,2021.1.2,59.86464499308047,
7,csavarhúzó,hering,,,,,,,,,2,0,2,0,0,4,4,6,,,,,,,,,,,,,727.7425123611465,None,728.7537042442709,None,728.7537042442709,None,,,,,,,,,,,,,,,,,,,,,,,,,,,,,,,,,,,,,,,,,,,,,,,,,,,,,,,,,,,,,357990,2022_Jun_29_1246,palt,2021.1.2,59.86464499308047,
6,menta,triatlon,,,,,,,,,2,0,2,0,0,5,5,5,,,,,,,,,,,,,734.7556144464761,None,735.7610778990202,None,735.7610778990202,None,,,,,,,,,,,,,,,,,,,,,,,,,,,,,,,,,,,,,,,,,,,,,,,,,,,,,,,,,,,,,357990,2022_Jun_29_1246,palt,2021.1.2,59.86464499308047,
10,málna,dominó,,,,,,,,,2,0,2,0,0,6,6,9,,,,,,,,,,,,,741.7420259467326,None,742.7523202649318,None,742.7523202649318,None,,,,,,,,,,,,,,,,,,,,,,,,,,,,,,,,,,,,,,,,,,,,,,,,,,,,,,,,,,,,,357990,2022_Jun_29_1246,palt,2021.1.2,59.86464499308047,
2,kötény,tisztás,,,,,,,,,2,0,2,0,0,7,7,1,,,,,,,,,,,,,748.7563247857615,None,749.7479910529219,None,749.7479910529219,None,,,,,,,,,,,,,,,,,,,,,,,,,,,,,,,,,,,,,,,,,,,,,,,,,,,,,,,,,,,,,357990,2022_Jun_29_1246,palt,2021.1.2,59.86464499308047,
4,mocsár,ananász,,,,,,,,,2,0,2,0,0,8,8,3,,,,,,,,,,,,,755.7420987221412,None,756.7513766707852,None,756.7513766707852,None,,,,,,,,,,,,,,,,,,,,,,,,,,,,,,,,,,,,,,,,,,,,,,,,,,,,,,,,,,,,,357990,2022_Jun_29_1246,palt,2021.1.2,59.86464499308047,
1,bagoly,kirakó,,,,,,,,,2,0,2,0,0,9,9,0,,,,,,,,,,,,,762.741817261558,None,763.7563285175711,None,763.7563285175711,None,,,,,,,,,,,,,,,,,,,,,,,,,,,,,,,,,,,,,,,,,,,,,,,,,,,,,,,,,,,,,357990,2022_Jun_29_1246,palt,2021.1.2,59.86464499308047,
6,menta,triatlon,,,,,,,,,2,0,2,0,,,,,0,0,0,5,,,,,,,,,777.358266835101,None,,,,,,,,,,,triatlon,778.3478518463671,None,4,778.3478518463671,None,778.3478518463671,None,778.3478518463671,None,menta,780.3283651070669,None,780.3283651070669,None,down,1.9357771398499608,780.3283651070669,None,782.3063669893891,None,4,1.7081010374240577,782.3063669893891,None,1.9412206886336207,,,,,,,773.3348188046366,None,769.7409710125066,None,u,2.2833593441173434,769.7409710125066,None,772.0510221854784,None,4,1.2505742735229433,772.0510221854784,None,,,,,,,,,357990,2022_Jun_29_1246,palt,2021.1.2,59.86464499308047,
1,bagoly,kirakó,,,,,,,,,2,0,2,0,,,,,0,1,1,0,,,,,,,,,784.0441613802686,None,,,,,,,,,,,kirakó,785.0757711566985,None,4,785.0757711566985,None,785.0757711566985,None,785.0757711566985,None,bagoly,787.1162365344353,None,787.1162365344353,None,down,2.171891784761101,787.1162365344353,None,789.3077497244813,None,4,1.1183364507742226,789.3077497244813,None,2.0094098155386746,,,,,,,,,,,,,,,,,,,,,,,,,,,,,357990,2022_Jun_29_1246,palt,2021.1.2,59.86464499308047,
8,szalvéta,puska,,,,,,,,,2,0,2,0,,,,,0,2,2,7,,,,,,,,,790.4599902471527,None,,,,,,,,,,,szalvéta,791.4795510061085,None,4,791.4795510061085,None,791.4795510061085,None,791.4795510061085,None,puska,793.8644101480022,None,793.8644101480022,None,down,2.575536968652159,793.8644101480022,None,796.4840764631517,None,4,1.0962148634716868,796.4840764631517,None,2.351521413307637,,,,,,,,,,,,,,,,,,,,,,,,,,,,,357990,2022_Jun_29_1246,palt,2021.1.2,59.86464499308047,
7,csavarhúzó,hering,,,,,,,,,2,0,2,0,,,,,0,3,3,6,,,,,,,,,797.6184247764759,None,,,,,,,,,,,csavarhúzó,798.6394677930512,None,4,798.6394677930512,None,798.6394677930512,None,798.6394677930512,None, hering,800.8802428715862,None,800.8802428715862,None,down,1.7677530334331095,800.8802428715862,None,802.6779427290894,None,4,0.9390296470373869,802.6779427290894,None,2.197509086225182,,,,,,,,,,,,,,,,,,,,,,,,,,,,,357990,2022_Jun_29_1246,palt,2021.1.2,59.86464499308047,
2,kötény,tisztás,,,,,,,,,2,0,2,0,,,,,0,4,4,1,,,,,,,,,803.6539059630595,None,,,,,,,,,,,tisztás,804.6706741941161,None,4,804.6706741941161,None,804.6706741941161,None,804.6706741941161,None, ,813.0670013930649,None,813.0670013930649,None,down,1.3731985720805824,813.0670013930649,None,814.486991527956,None,4,1.3368282178416848,814.486991527956,None,8.35845188377425,,,,,,,,,,,,,,,,,,,,,,,,,,,,,357990,2022_Jun_29_1246,palt,2021.1.2,59.86464499308047,
9,szilva,kecske,,,,,,,,,2,0,2,0,,,,,0,5,5,8,,,,,,,,,815.8554481822066,None,,,,,,,,,,,kecske,816.8750963346101,None,4,816.8750963346101,None,816.8750963346101,None,816.8750963346101,None,szilva,818.9870101879351,None,818.9870101879351,None,down,1.6127398870885372,818.9870101879351,None,820.6532600023784,None,4,3.8786959243007004,820.6532600023784,None,2.072004555724561,,,,,,,,,,,,,,,,,,,,,,,,,,,,,357990,2022_Jun_29_1246,palt,2021.1.2,59.86464499308047,
4,mocsár,ananász,,,,,,,,,2,0,2,0,,,,,0,6,6,3,,,,,,,,,824.5606518825516,None,,,,,,,,,,,mocsár,825.5916197411716,None,4,825.5916197411716,None,825.5916197411716,None,825.5916197411716,None,ananász,827.3517440939322,None,827.3517440939322,None,down,1.6641704239882529,827.3517440939322,None,829.0534520801157,None,4,1.027099248021841,829.0534520801157,None,1.7140241577289999,,,,,,,,,,,,,,,,,,,,,,,,,,,,,357990,2022_Jun_29_1246,palt,2021.1.2,59.86464499308047,
5,karton,hentes,,,,,,,,,2,0,2,0,,,,,0,7,7,4,,,,,,,,,830.1221437933855,None,,,,,,,,,,,karton,831.1362712676637,None,4,831.1362712676637,None,831.1362712676637,None,831.1362712676637,None, ,838.5056236214004,None,838.5056236214004,None,down,1.2938676346093416,838.5056236214004,None,839.8412081240676,None,4,1.227289521601051,839.8412081240676,None,7.3362814681604505,,,,,,,,,,,,,,,,,,,,,,,,,,,,,357990,2022_Jun_29_1246,palt,2021.1.2,59.86464499308047,
3,fogó,limonádé,,,,,,,,,2,0,2,0,,,,,0,8,8,2,,,,,,,,,841.1090905359015,None,,,,,,,,,,,fogó,842.1339828809723,None,4,842.1339828809723,None,842.1339828809723,None,842.1339828809723,None,limonádé,847.3504823404364,None,847.3504823404364,None,down,3.7929989928379655,847.3504823404364,None,851.2034888099879,None,4,1.5490081063471735,851.2034888099879,None,5.180447886697948,,,,,,,,,,,,,,,,,,,,,,,,,,,,,357990,2022_Jun_29_1246,palt,2021.1.2,59.86464499308047,
10,málna,dominó,,,,,,,,,2,0,2,0,,,,,0,9,9,9,,,,,,,,,852.7827065410092,None,,,,,,,,,,,dominó,853.8018617476337,None,4,853.8018617476337,None,853.8018617476337,None,853.8018617476337,None,málna,855.4979025716893,None,855.4979025716893,None,down,2.141424335539341,855.4979025716893,None,857.6871220883913,None,4,1.429477079771459,857.6871220883913,None,1.6683752331882715,,,,,,,,,,,,,,,,,,,,,,,,,,,,,357990,2022_Jun_29_1246,palt,2021.1.2,59.86464499308047,
,,,,,,,,,,,2,0,2,0,,,,,,,,,,,,,,,,,,,,,,,,,,,,,,,,,,,,,,,,,,,,,,,,,,,,,,,,,,,,,,,,,,,,,,,,,,,4,34.41406421549618,859.1678878860548,None,859.1678878860548,None,,,357990,2022_Jun_29_1246,palt,2021.1.2,59.86464499308047,
6,menta,triatlon,,,,,,,,,3,0,3,0,0,0,0,5,,,,,,,,,,,,,897.6442855964415,None,898.6347871441394,None,898.6347871441394,None,,,,,,,,,,,,,,,,,,,,,,,,,,,,,,,,,,,,,,,893.6149082253687,None,,,,,,,,,,,,,,,,,,,,,357990,2022_Jun_29_1246,palt,2021.1.2,59.86464499308047,
4,mocsár,ananász,,,,,,,,,3,0,3,0,0,1,1,3,,,,,,,,,,,,,904.6243581604213,None,905.6354480329901,None,905.6354480329901,None,,,,,,,,,,,,,,,,,,,,,,,,,,,,,,,,,,,,,,,,,,,,,,,,,,,,,,,,,,,,,357990,2022_Jun_29_1246,palt,2021.1.2,59.86464499308047,
9,szilva,kecske,,,,,,,,,3,0,3,0,0,2,2,8,,,,,,,,,,,,,911.6230600187555,None,912.6352782235481,None,912.6352782235481,None,,,,,,,,,,,,,,,,,,,,,,,,,,,,,,,,,,,,,,,,,,,,,,,,,,,,,,,,,,,,,357990,2022_Jun_29_1246,palt,2021.1.2,59.86464499308047,
5,karton,hentes,,,,,,,,,3,0,3,0,0,3,3,4,,,,,,,,,,,,,918.6236932282336,None,919.6355621726252,None,919.6355621726252,None,,,,,,,,,,,,,,,,,,,,,,,,,,,,,,,,,,,,,,,,,,,,,,,,,,,,,,,,,,,,,357990,2022_Jun_29_1246,palt,2021.1.2,59.86464499308047,
7,csavarhúzó,hering,,,,,,,,,3,0,3,0,0,4,4,6,,,,,,,,,,,,,925.613317115698,None,926.6354539422318,None,926.6354539422318,None,,,,,,,,,,,,,,,,,,,,,,,,,,,,,,,,,,,,,,,,,,,,,,,,,,,,,,,,,,,,,357990,2022_Jun_29_1246,palt,2021.1.2,59.86464499308047,
3,fogó,limonádé,,,,,,,,,3,0,3,0,0,5,5,2,,,,,,,,,,,,,932.6243251934648,None,933.63138442114,None,933.63138442114,None,,,,,,,,,,,,,,,,,,,,,,,,,,,,,,,,,,,,,,,,,,,,,,,,,,,,,,,,,,,,,357990,2022_Jun_29_1246,palt,2021.1.2,59.86464499308047,
2,kötény,tisztás,,,,,,,,,3,0,3,0,0,6,6,1,,,,,,,,,,,,,939.6209246474318,None,940.6306812353432,None,940.6306812353432,None,,,,,,,,,,,,,,,,,,,,,,,,,,,,,,,,,,,,,,,,,,,,,,,,,,,,,,,,,,,,,357990,2022_Jun_29_1246,palt,2021.1.2,59.86464499308047,
10,málna,dominó,,,,,,,,,3,0,3,0,0,7,7,9,,,,,,,,,,,,,946.6243009353057,None,947.6256230240688,None,947.6256230240688,None,,,,,,,,,,,,,,,,,,,,,,,,,,,,,,,,,,,,,,,,,,,,,,,,,,,,,,,,,,,,,357990,2022_Jun_29_1246,palt,2021.1.2,59.86464499308047,
8,szalvéta,puska,,,,,,,,,3,0,3,0,0,8,8,7,,,,,,,,,,,,,953.6241759103723,None,954.6415375419892,None,954.6415375419892,None,,,,,,,,,,,,,,,,,,,,,,,,,,,,,,,,,,,,,,,,,,,,,,,,,,,,,,,,,,,,,357990,2022_Jun_29_1246,palt,2021.1.2,59.86464499308047,
1,bagoly,kirakó,,,,,,,,,3,0,3,0,0,9,9,0,,,,,,,,,,,,,960.6118488535285,None,961.6260792706162,None,961.6260792706162,None,,,,,,,,,,,,,,,,,,,,,,,,,,,,,,,,,,,,,,,,,,,,,,,,,,,,,,,,,,,,,357990,2022_Jun_29_1246,palt,2021.1.2,59.86464499308047,
1,bagoly,kirakó,,,,,,,,,3,0,3,0,,,,,0,0,0,0,,,,,,,,,976.512326435186,None,,,,,,,,,,,kirakó,977.5035010012798,None,4,977.5035010012798,None,977.5035010012798,None,977.5035010012798,None, bagoly,979.7728494983166,None,979.7728494983166,None,down,1.8810944072902203,979.7728494983166,None,981.6872393377125,None,4,0.9707439211197197,981.6872393377125,None,2.228318331297487,,,,,,,972.48776344629,None,967.623257196974,None,u,1.7591882226988673,967.623257196974,None,969.4111205381341,None,4,3.0479003014042974,969.4111205381341,None,,,,,,,,,357990,2022_Jun_29_1246,palt,2021.1.2,59.86464499308047,
8,szalvéta,puska,,,,,,,,,3,0,3,0,,,,,0,1,1,7,,,,,,,,,982.6924863299355,None,,,,,,,,,,,szalvéta,983.7103387298994,None,4,983.7103387298994,None,983.7103387298994,None,983.7103387298994,None,puska,986.9573948970065,None,986.9573948970065,None,down,1.7205077116377652,986.9573948970065,None,988.7082413015887,None,4,0.773501368239522,988.7082413015887,None,3.213509130757302,,,,,,,,,,,,,,,,,,,,,,,,,,,,,357990,2022_Jun_29_1246,palt,2021.1.2,59.86464499308047,
10,málna,dominó,,,,,,,,,3,0,3,0,,,,,0,2,2,9,,,,,,,,,989.523769300431,None,,,,,,,,,,,dominó,990.5404818612151,None,4,990.5404818612151,None,990.5404818612151,None,990.5404818612151,None, ,1001.1121156970039,None,1001.1121156970039,None,down,1.7735352679155767,1001.1121156970039,None,1002.9181682583876,None,4,3.3354790713638067,1002.9181682583876,None,10.5351536963135,,,,,,,,,,,,,,,,,,,,,,,,,,,,,357990,2022_Jun_29_1246,palt,2021.1.2,59.86464499308047,
5,karton,hentes,,,,,,,,,3,0,3,0,,,,,0,3,3,4,,,,,,,,,1006.2987261791714,None,,,,,,,,,,,karton,1007.326541364193,None,4,1007.326541364193,None,1007.326541364193,None,1007.326541364193,None,hentes,1010.343106508255,None,1010.343106508255,None,down,1.4703688472509384,1010.343106508255,None,1011.8568589081988,None,4,1.1738809826783836,1011.8568589081988,None,2.9850716842338443,,,,,,,,,,,,,,,,,,,,,,,,,,,,,357990,2022_Jun_29_1246,palt,2021.1.2,59.86464499308047,
2,kötény,tisztás,,,,,,,,,3,0,3,0,,,,,0,4,4,1,,,,,,,,,1013.0578444260173,None,,,,,,,,,,,tisztás,1014.0735014304519,None,4,1014.0735014304519,None,1014.0735014304519,None,1014.0735014304519,None,kötény,1016.1013875249773,None,1016.1013875249773,None,down,2.0481397761031985,1016.1013875249773,None,1018.17453440791,None,4,1.0188451330177486,1018.17453440791,None,1.9860519766807556,,,,,,,,,,,,,,,,,,,,,,,,,,,,,357990,2022_Jun_29_1246,palt,2021.1.2,59.86464499308047,
4,mocsár,ananász,,,,,,,,,3,0,3,0,,,,,0,5,5,3,,,,,,,,,1019.2244148878381,None,,,,,,,,,,,mocsár,1020.2452688124031,None,4,1020.2452688124031,None,1020.2452688124031,None,1020.2452688124031,None,ananász,1021.8409509216435,None,1021.8409509216435,None,down,1.6685170521959662,1021.8409509216435,None,1023.5456563890912,None,4,0.8010273170657456,1023.5456563890912,None,1.5481802076101303,,,,,,,,,,,,,,,,,,,,,,,,,,,,,357990,2022_Jun_29_1246,palt,2021.1.2,59.86464499308047,
9,szilva,kecske,,,,,,,,,3,0,3,0,,,,,0,6,6,8,,,,,,,,,1024.3813457009383,None,,,,,,,,,,,kecske,1025.4017427568324,None,4,1025.4017427568324,None,1025.4017427568324,None,1025.4017427568324,None,szilva,1026.9388623256236,None,1026.9388623256236,None,down,1.5945596862584352,1026.9388623256236,None,1028.5661243544891,None,4,0.8323599863797426,1028.5661243544891,None,1.495578108355403,,,,,,,,,,,,,,,,,,,,,,,,,,,,,357990,2022_Jun_29_1246,palt,2021.1.2,59.86464499308047,
6,menta,triatlon,,,,,,,,,3,0,3,0,,,,,0,7,7,5,,,,,,,,,1029.4290457139723,None,,,,,,,,,,,triatlon,1030.4525929554366,None,4,1030.4525929554366,None,1030.4525929554366,None,1030.4525929554366,None,menta,1032.0691865249537,None,1032.0691865249537,None,down,1.3285349165089428,1032.0691865249537,None,1033.4290062161162,None,4,0.7903877818025649,1033.4290062161162,None,1.585826932452619,,,,,,,,,,,,,,,,,,,,,,,,,,,,,357990,2022_Jun_29_1246,palt,2021.1.2,59.86464499308047,
7,csavarhúzó,hering,,,,,,,,,3,0,3,0,,,,,0,8,8,6,,,,,,,,,1034.241394603625,None,,,,,,,,,,,csavarhúzó,1035.2637960966676,None,4,1035.2637960966676,None,1035.2637960966676,None,1035.2637960966676,None,hering,1036.7102678203955,None,1036.7102678203955,None,down,1.5990462671034038,1036.7102678203955,None,1038.3364183115773,None,4,0.4557624231092632,1038.3364183115773,None,1.4174215313978493,,,,,,,,,,,,,,,,,,,,,,,,,,,,,357990,2022_Jun_29_1246,palt,2021.1.2,59.86464499308047,
3,fogó,limonádé,,,,,,,,,3,0,3,0,,,,,0,9,9,2,,,,,,,,,1038.8244439358823,None,,,,,,,,,,,fogó,1039.8406113022938,None,4,1039.8406113022938,None,1039.8406113022938,None,1039.8406113022938,None,limonádé,1041.5044592125341,None,1041.5044592125341,None,down,2.292787197511643,1041.5044592125341,None,1043.8260412658565,None,4,0.6621852689422667,1043.8260412658565,None,1.6368817733600736,,,,,,,,,,,,,,,,,,,,,,,,,,,,,357990,2022_Jun_29_1246,palt,2021.1.2,59.86464499308047,
,,,,,,,,,,,3,0,3,0,,,,,,,,,,,,,,,,,,,,,,,,,,,,,,,,,,,,,,,,,,,,,,,,,,,,,,,,,,,,,,,,,,,,,,,,,,,4,9.505922187585384,1044.5290732067078,None,1044.5290732067078,None,,,357990,2022_Jun_29_1246,palt,2021.1.2,59.86464499308047,
,,,,,,,,,,,,,,,,,,,,,,,,,,,,,,,,,,,,,,,,,,,,,,,,,,,,,,,,,,,,,,,,,,,,,,,,,,,,,,,,,,,,,,,,,,,,,,,1054.0932655879296,None,,,,,,
