itemno,wordA,wordB,enc_gyak.thisRepN,enc_gyak.thisTrialN,enc_gyak.thisN,enc_gyak.thisIndex,rec_gyak.thisRepN,rec_gyak.thisTrialN,rec_gyak.thisN,rec_gyak.thisIndex,repeat_task.thisRepN,repeat_task.thisTrialN,repeat_task.thisN,repeat_task.thisIndex,enc_loop.thisRepN,enc_loop.thisTrialN,enc_loop.thisN,enc_loop.thisIndex,test_loop.thisRepN,test_loop.thisTrialN,test_loop.thisN,test_loop.thisIndex,int.started,int.stopped,int_key.keys,int_key.rt,int_key.started,int_key.stopped,prepare_gyak_text.started,prepare_gyak_text.stopped,fix.started,fix.stopped,word1.started,word1.stopped,word2.started,word2.stopped,gykrec_inst.started,gykrec_inst.stopped,gyakrec_inst.keys,gyakrec_inst.rt,gyakrec_inst.started,gyakrec_inst.stopped,cueword,cueword1.started,cueword1.stopped,cue_resp.keys,cue_resp.rt,cue_resp.started,cue_resp.stopped,cue_cont_text.started,cue_cont_text.stopped,cue_space.started,cue_space.stopped,test_ansbox.text,test_ansbox.started,test_ansbox.stopped,ans_text.started,ans_text.stopped,ans_continue.keys,ans_continue.rt,ans_continue.started,ans_continue.stopped,feedback_text.started,feedback_text.stopped,feedback_cont.keys,feedback_cont.rt,feedback_cont.started,feedback_cont.stopped,main_prep.started,main_prep.stopped,main_prep_resp.keys,main_prep_resp.rt,main_prep_resp.started,main_prep_resp.stopped,preparation.started,preparation.stopped,break_text.started,break_text.stopped,key_resp.keys,key_resp.rt,key_resp.started,key_resp.stopped,test_instruction.started,test_instruction.stopped,test_i_key.keys,test_i_key.rt,test_i_key.started,test_i_key.stopped,rep_routine.keys,rep_routine.rt,rep_routine.started,rep_routine.stopped,encrep_textbox.started,encrep_textbox.stopped,Résztvevő kódja,date,expName,psychopyVersion,frameRate,
,,,,,,,,,,,,,,,,,,,,,,,12.046824529446894,None,4,83.70455151918577,12.046824529446894,None,,,,,,,,,,,,,,,,,,,,,,,,,,,,,,,,,,,,,,,,,,,,,,,,,,,,,,,,,,,,,,,,,,,483574,2022_May_18_1641,palt,2021.1.2,59.9693752708665,
3,majoránna,szikla,0,0,0,2,,,,,,,,,,,,,,,,,,,,,,,95.77509154478321,None,98.85250637095305,None,99.8054594717978,None,99.8054594717978,None,,,,,,,,,,,,,,,,,,,,,,,,,,,,,,,,,,,,,,,,,,,,,,,,,,,,,,,,,,,483574,2022_May_18_1641,palt,2021.1.2,59.9693752708665,
1,sapka,beton,0,1,1,0,,,,,,,,,,,,,,,,,,,,,,,,,105.78737972595263,None,106.80994076567004,None,106.80994076567004,None,,,,,,,,,,,,,,,,,,,,,,,,,,,,,,,,,,,,,,,,,,,,,,,,,,,,,,,,,,,483574,2022_May_18_1641,palt,2021.1.2,59.9693752708665,
4,kard,harcsa,0,2,2,3,,,,,,,,,,,,,,,,,,,,,,,,,112.78644452916342,None,113.80544174442184,None,113.80544174442184,None,,,,,,,,,,,,,,,,,,,,,,,,,,,,,,,,,,,,,,,,,,,,,,,,,,,,,,,,,,,483574,2022_May_18_1641,palt,2021.1.2,59.9693752708665,
2,lepke,szintetizátor,0,3,3,1,,,,,,,,,,,,,,,,,,,,,,,,,119.78877116943477,None,120.80019568532589,None,120.80019568532589,None,,,,,,,,,,,,,,,,,,,,,,,,,,,,,,,,,,,,,,,,,,,,,,,,,,,,,,,,,,,483574,2022_May_18_1641,palt,2021.1.2,59.9693752708665,
,,,,,,,,,,,,,,,,,,,,,,,,,,,,,,,,,,,,,126.78628840384772,None,4,4.7736086653894745,126.78628840384772,None,,,,,,,,,,,,,,,,,,,,,,,,,,,,,,,,,,,,,,,,,,,,,,,,,,,,,483574,2022_May_18_1641,palt,2021.1.2,59.9693752708665,
2,lepke,szintetizátor,,,,,0,0,0,1,,,,,,,,,,,,,,,,,,,,,131.60237901375513,None,,,,,,,,,,,lepke,132.61980906681856,None,4,14.321952462021727,132.61980906681856,None,132.61980906681856,None,132.61980906681856,None, ,146.98398751494824,None,146.98398751494824,None,down,2.837680998054566,146.98398751494824,None,149.87945789063815,None,4,11.360079692327417,149.87945789063815,None,,,,,,,,,,,,,,,,,,,,,,,,,,,483574,2022_May_18_1641,palt,2021.1.2,59.9693752708665,
4,kard,harcsa,,,,,0,1,1,3,,,,,,,,,,,,,,,,,,,,,161.29976991732838,None,,,,,,,,,,,kard,162.31971197057283,None,4,8.874699800886447,162.31971197057283,None,162.31971197057283,None,162.31971197057283,None, ,171.23765319405356,None,171.23765319405356,None,down,5.479907419561641,171.23765319405356,None,176.7397540435486,None,4,4.092703909933334,176.7397540435486,None,,,,,,,,,,,,,,,,,,,,,,,,,,,483574,2022_May_18_1641,palt,2021.1.2,59.9693752708665,
3,majoránna,szikla,,,,,0,2,2,2,,,,,,,,,,,,,,,,,,,,,180.85720474744448,None,,,,,,,,,,,szikla,181.88111275667325,None,4,8.790195268607931,181.88111275667325,None,181.88111275667325,None,181.88111275667325,None, ,190.7146421278303,None,190.7146421278303,None,down,2.0666428020922467,190.7146421278303,None,192.81333757960238,None,4,1.257876708288677,192.81333757960238,None,,,,,,,,,,,,,,,,,,,,,,,,,,,483574,2022_May_18_1641,palt,2021.1.2,59.9693752708665,
1,sapka,beton,,,,,0,3,3,0,,,,,,,,,,,,,,,,,,,,,194.0897624096251,None,,,,,,,,,,,sapka,195.1215594118985,None,4,5.0664838777447585,195.1215594118985,None,195.1215594118985,None,195.1215594118985,None, beton,200.23308233026182,None,200.23308233026182,None,down,2.2279522766475566,200.23308233026182,None,202.50652025305317,None,4,14.163620564504527,202.50652025305317,None,,,,,,,,,,,,,,,,,,,,,,,,,,,483574,2022_May_18_1641,palt,2021.1.2,59.9693752708665,
,,,,,,,,,,,,,,,,,,,,,,,,,,,,,,,,,,,,,,,,,,,,,,,,,,,,,,,,,,,,,,,,,,,,,216.69338731578318,None,4,20.68935698142741,216.69338731578318,None,,,,,,,,,,,,,,,,,,,,,483574,2022_May_18_1641,palt,2021.1.2,59.9693752708665,
3,fogó,limonádé,,,,,,,,,0,0,0,0,0,0,0,2,,,,,,,,,,,,,241.47919148238725,None,242.43408588631428,None,242.43408588631428,None,,,,,,,,,,,,,,,,,,,,,,,,,,,,,,,,,,,,,,,237.41782615103875,None,,,,,,,,,,,,,,,,,,,483574,2022_May_18_1641,palt,2021.1.2,59.9693752708665,
9,szilva,kecske,,,,,,,,,0,0,0,0,0,1,1,8,,,,,,,,,,,,,248.41896505714976,None,249.4370625303418,None,249.4370625303418,None,,,,,,,,,,,,,,,,,,,,,,,,,,,,,,,,,,,,,,,,,,,,,,,,,,,,,,,,,,,483574,2022_May_18_1641,palt,2021.1.2,59.9693752708665,
10,málna,dominó,,,,,,,,,0,0,0,0,0,2,2,9,,,,,,,,,,,,,255.4225997911126,None,256.44045810026,None,256.44045810026,None,,,,,,,,,,,,,,,,,,,,,,,,,,,,,,,,,,,,,,,,,,,,,,,,,,,,,,,,,,,483574,2022_May_18_1641,palt,2021.1.2,59.9693752708665,
7,csavarhúzó,hering,,,,,,,,,0,0,0,0,0,3,3,6,,,,,,,,,,,,,262.4220788550738,None,263.44259222742403,None,263.44259222742403,None,,,,,,,,,,,,,,,,,,,,,,,,,,,,,,,,,,,,,,,,,,,,,,,,,,,,,,,,,,,483574,2022_May_18_1641,palt,2021.1.2,59.9693752708665,
5,karton,hentes,,,,,,,,,0,0,0,0,0,4,4,4,,,,,,,,,,,,,269.42306132489466,None,270.43616994144395,None,270.43616994144395,None,,,,,,,,,,,,,,,,,,,,,,,,,,,,,,,,,,,,,,,,,,,,,,,,,,,,,,,,,,,483574,2022_May_18_1641,palt,2021.1.2,59.9693752708665,
6,menta,triatlon,,,,,,,,,0,0,0,0,0,5,5,5,,,,,,,,,,,,,276.4220343811321,None,277.43167931737844,None,277.43167931737844,None,,,,,,,,,,,,,,,,,,,,,,,,,,,,,,,,,,,,,,,,,,,,,,,,,,,,,,,,,,,483574,2022_May_18_1641,palt,2021.1.2,59.9693752708665,
4,mocsár,ananász,,,,,,,,,0,0,0,0,0,6,6,3,,,,,,,,,,,,,283.42014470513095,None,284.4275609681499,None,284.4275609681499,None,,,,,,,,,,,,,,,,,,,,,,,,,,,,,,,,,,,,,,,,,,,,,,,,,,,,,,,,,,,483574,2022_May_18_1641,palt,2021.1.2,59.9693752708665,
1,bagoly,kirakó,,,,,,,,,0,0,0,0,0,7,7,0,,,,,,,,,,,,,290.4178768451093,None,291.4229474964668,None,291.4229474964668,None,,,,,,,,,,,,,,,,,,,,,,,,,,,,,,,,,,,,,,,,,,,,,,,,,,,,,,,,,,,483574,2022_May_18_1641,palt,2021.1.2,59.9693752708665,
2,kötény,tisztás,,,,,,,,,0,0,0,0,0,8,8,1,,,,,,,,,,,,,297.4176426571503,None,298.4249553550035,None,298.4249553550035,None,,,,,,,,,,,,,,,,,,,,,,,,,,,,,,,,,,,,,,,,,,,,,,,,,,,,,,,,,,,483574,2022_May_18_1641,palt,2021.1.2,59.9693752708665,
8,szalvéta,puska,,,,,,,,,0,0,0,0,0,9,9,7,,,,,,,,,,,,,304.42888399018557,None,305.4421369137999,None,305.4421369137999,None,,,,,,,,,,,,,,,,,,,,,,,,,,,,,,,,,,,,,,,,,,,,,,,,,,,,,,,,,,,483574,2022_May_18_1641,palt,2021.1.2,59.9693752708665,
3,fogó,limonádé,,,,,,,,,0,0,0,0,,,,,0,0,0,2,,,,,,,,,321.12316638292396,None,,,,,,,,,,,limonádé,322.10643174056895,None,4,8.882263792067533,322.10643174056895,None,322.10643174056895,None,322.10643174056895,None, fogó,331.01960989821237,None,331.01960989821237,None,down,2.6880675481515937,331.01960989821237,None,333.7444903628202,None,4,2.840343214425957,333.7444903628202,None,,,,,,,317.09296671047923,None,311.41752136457944,None,u,2.338513562688604,311.41752136457944,None,313.80735972203547,None,4,3.246747648634482,313.80735972203547,None,,,,,,,483574,2022_May_18_1641,palt,2021.1.2,59.9693752708665,
5,karton,hentes,,,,,,,,,0,0,0,0,,,,,0,1,1,4,,,,,,,,,336.60570989429834,None,,,,,,,,,,,karton,337.6241273932683,None,4,13.601257524016546,337.6241273932683,None,337.6241273932683,None,337.6241273932683,None, ,351.2677654736617,None,351.2677654736617,None,down,1.3676548797520809,351.2677654736617,None,352.68868987230235,None,4,5.980580748815555,352.68868987230235,None,,,,,,,,,,,,,,,,,,,,,,,,,,,483574,2022_May_18_1641,palt,2021.1.2,59.9693752708665,
4,mocsár,ananász,,,,,,,,,0,0,0,0,,,,,0,2,2,3,,,,,,,,,358.6944226566993,None,,,,,,,,,,,mocsár,359.72475855002995,None,None,,359.72475855002995,None,359.72475855002995,None,359.72475855002995,None,alagút,374.71916074250476,None,374.71916074250476,None,down,3.2280365594197065,374.71916074250476,None,377.9833623917075,None,4,5.803592188254697,377.9833623917075,None,,,,,,,,,,,,,,,,,,,,,,,,,,,483574,2022_May_18_1641,palt,2021.1.2,59.9693752708665,
6,menta,triatlon,,,,,,,,,0,0,0,0,,,,,0,3,3,5,,,,,,,,,383.82731234948733,None,,,,,,,,,,,triatlon,384.8490084798832,None,None,,384.8490084798832,None,384.8490084798832,None,384.8490084798832,None, ,399.83361520894687,None,399.83361520894687,None,down,1.9213535877643153,399.83361520894687,None,401.7894572499499,None,4,4.510333815793274,401.7894572499499,None,,,,,,,,,,,,,,,,,,,,,,,,,,,483574,2022_May_18_1641,palt,2021.1.2,59.9693752708665,
1,bagoly,kirakó,,,,,,,,,0,0,0,0,,,,,0,4,4,0,,,,,,,,,406.3346259803511,None,,,,,,,,,,,bagoly,407.356207038305,None,4,13.33545387990307,407.356207038305,None,407.356207038305,None,407.356207038305,None, kérő,420.7388235118415,None,420.7388235118415,None,down,3.720012278557988,420.7388235118415,None,424.481308815215,None,4,4.710169853147818,424.481308815215,None,,,,,,,,,,,,,,,,,,,,,,,,,,,483574,2022_May_18_1641,palt,2021.1.2,59.9693752708665,
9,szilva,kecske,,,,,,,,,0,0,0,0,,,,,0,5,5,8,,,,,,,,,429.23315292876214,None,,,,,,,,,,,szilva,430.25393252275535,None,4,4.324638936901465,430.25393252275535,None,430.25393252275535,None,430.25393252275535,None, kecske,434.62912309204694,None,434.62912309204694,None,down,4.341415565140778,434.62912309204694,None,439.0190482203034,None,4,1.4016320381779224,439.0190482203034,None,,,,,,,,,,,,,,,,,,,,,,,,,,,483574,2022_May_18_1641,palt,2021.1.2,59.9693752708665,
8,szalvéta,puska,,,,,,,,,0,0,0,0,,,,,0,6,6,7,,,,,,,,,440.455733810697,None,,,,,,,,,,,szalvéta,441.46635126450565,None,4,5.522912477143109,441.46635126450565,None,441.46635126450565,None,441.46635126450565,None, pad,447.0329505256959,None,447.0329505256959,None,down,2.337344177911291,447.0329505256959,None,449.40731226242497,None,4,4.765889481961494,449.40731226242497,None,,,,,,,,,,,,,,,,,,,,,,,,,,,483574,2022_May_18_1641,palt,2021.1.2,59.9693752708665,
7,csavarhúzó,hering,,,,,,,,,0,0,0,0,,,,,0,7,7,6,,,,,,,,,454.20882848172914,None,,,,,,,,,,,hering,455.2305314542609,None,None,,455.2305314542609,None,455.2305314542609,None,455.2305314542609,None, csók,470.21916851765127,None,470.21916851765127,None,down,3.4228843621676788,470.21916851765127,None,473.66982607889804,None,4,4.224257518420927,473.66982607889804,None,,,,,,,,,,,,,,,,,,,,,,,,,,,483574,2022_May_18_1641,palt,2021.1.2,59.9693752708665,
10,málna,dominó,,,,,,,,,0,0,0,0,,,,,0,8,8,9,,,,,,,,,477.9203462373989,None,,,,,,,,,,,dominó,478.9298658379703,None,4,5.819380126544274,478.9298658379703,None,478.9298658379703,None,478.9298658379703,None,mág,484.7871595332981,None,484.7871595332981,None,down,2.6149931298568845,484.7871595332981,None,487.4248424596153,None,4,4.554939935274888,487.4248424596153,None,,,,,,,,,,,,,,,,,,,,,,,,,,,483574,2022_May_18_1641,palt,2021.1.2,59.9693752708665,
2,kötény,tisztás,,,,,,,,,0,0,0,0,,,,,0,9,9,1,,,,,,,,,492.0201684660278,None,,,,,,,,,,,kötény,493.0512025691569,None,4,5.191927139851032,493.0512025691569,None,493.0512025691569,None,493.0512025691569,None, tiszta,498.27392651411355,None,498.27392651411355,None,down,6.696026206656825,498.27392651411355,None,504.9916883489932,None,4,6.14787710015662,504.9916883489932,None,,,,,,,,,,,,,,,,,,,,,,,,,,,483574,2022_May_18_1641,palt,2021.1.2,59.9693752708665,
,,,,,,,,,,,0,0,0,0,,,,,,,,,,,,,,,,,,,,,,,,,,,,,,,,,,,,,,,,,,,,,,,,,,,,,,,,,,,,,,,,,,,,,,,,,,,4,107.72158317279536,511.23592306443607,None,511.23592306443607,None,483574,2022_May_18_1641,palt,2021.1.2,59.9693752708665,
8,szalvéta,puska,,,,,,,,,1,0,1,0,0,0,0,7,,,,,,,,,,,,,623.0157826511713,None,624.0011485473078,None,624.0011485473078,None,,,,,,,,,,,,,,,,,,,,,,,,,,,,,,,,,,,,,,,618.9882728746743,None,,,,,,,,,,,,,,,,,,,483574,2022_May_18_1641,palt,2021.1.2,59.9693752708665,
9,szilva,kecske,,,,,,,,,1,0,1,0,0,1,1,8,,,,,,,,,,,,,630.0000264355622,None,631.0064166878583,None,631.0064166878583,None,,,,,,,,,,,,,,,,,,,,,,,,,,,,,,,,,,,,,,,,,,,,,,,,,,,,,,,,,,,483574,2022_May_18_1641,palt,2021.1.2,59.9693752708665,
4,mocsár,ananász,,,,,,,,,1,0,1,0,0,2,2,3,,,,,,,,,,,,,636.997161131876,None,638.0013762041344,None,638.0013762041344,None,,,,,,,,,,,,,,,,,,,,,,,,,,,,,,,,,,,,,,,,,,,,,,,,,,,,,,,,,,,483574,2022_May_18_1641,palt,2021.1.2,59.9693752708665,
3,fogó,limonádé,,,,,,,,,1,0,1,0,0,3,3,2,,,,,,,,,,,,,643.9993683456269,None,645.002021853812,None,645.002021853812,None,,,,,,,,,,,,,,,,,,,,,,,,,,,,,,,,,,,,,,,,,,,,,,,,,,,,,,,,,,,483574,2022_May_18_1641,palt,2021.1.2,59.9693752708665,
2,kötény,tisztás,,,,,,,,,1,0,1,0,0,4,4,1,,,,,,,,,,,,,650.9970006524818,None,652.0069957821106,None,652.0069957821106,None,,,,,,,,,,,,,,,,,,,,,,,,,,,,,,,,,,,,,,,,,,,,,,,,,,,,,,,,,,,483574,2022_May_18_1641,palt,2021.1.2,59.9693752708665,
6,menta,triatlon,,,,,,,,,1,0,1,0,0,5,5,5,,,,,,,,,,,,,658.0006891905796,None,658.9962433514593,None,658.9962433514593,None,,,,,,,,,,,,,,,,,,,,,,,,,,,,,,,,,,,,,,,,,,,,,,,,,,,,,,,,,,,483574,2022_May_18_1641,palt,2021.1.2,59.9693752708665,
5,karton,hentes,,,,,,,,,1,0,1,0,0,6,6,4,,,,,,,,,,,,,664.9971219450526,None,666.0048451715847,None,666.0048451715847,None,,,,,,,,,,,,,,,,,,,,,,,,,,,,,,,,,,,,,,,,,,,,,,,,,,,,,,,,,,,483574,2022_May_18_1641,palt,2021.1.2,59.9693752708665,
1,bagoly,kirakó,,,,,,,,,1,0,1,0,0,7,7,0,,,,,,,,,,,,,672.0048995977268,None,672.996548448893,None,672.996548448893,None,,,,,,,,,,,,,,,,,,,,,,,,,,,,,,,,,,,,,,,,,,,,,,,,,,,,,,,,,,,483574,2022_May_18_1641,palt,2021.1.2,59.9693752708665,
7,csavarhúzó,hering,,,,,,,,,1,0,1,0,0,8,8,6,,,,,,,,,,,,,678.9998734203109,None,680.0183979055437,None,680.0183979055437,None,,,,,,,,,,,,,,,,,,,,,,,,,,,,,,,,,,,,,,,,,,,,,,,,,,,,,,,,,,,483574,2022_May_18_1641,palt,2021.1.2,59.9693752708665,
10,málna,dominó,,,,,,,,,1,0,1,0,0,9,9,9,,,,,,,,,,,,,685.9885910344019,None,686.9967630434548,None,686.9967630434548,None,,,,,,,,,,,,,,,,,,,,,,,,,,,,,,,,,,,,,,,,,,,,,,,,,,,,,,,,,,,483574,2022_May_18_1641,palt,2021.1.2,59.9693752708665,
2,kötény,tisztás,,,,,,,,,1,0,1,0,,,,,0,0,0,1,,,,,,,,,702.6022148022894,None,,,,,,,,,,,kötény,703.5904867439531,None,4,3.7728134215576574,703.5904867439531,None,703.5904867439531,None,703.5904867439531,None,tisztás,707.4024344351492,None,707.4024344351492,None,down,4.301298203703482,707.4024344351492,None,711.7499559925636,None,4,1.0315298475907184,711.7499559925636,None,,,,,,,698.5836551733082,None,692.9966299326334,None,u,2.0029402562358882,692.9966299326334,None,695.0245888026257,None,4,3.525822254770901,695.0245888026257,None,,,,,,,483574,2022_May_18_1641,palt,2021.1.2,59.9693752708665,
8,szalvéta,puska,,,,,,,,,1,0,1,0,,,,,0,1,1,7,,,,,,,,,712.8130110226921,None,,,,,,,,,,,szalvéta,713.8284919974685,None,4,7.994087453815155,713.8284919974685,None,713.8284919974685,None,713.8284919974685,None, ,721.8556456714286,None,721.8556456714286,None,down,1.4316395085479598,721.8556456714286,None,723.3262645683135,None,4,2.6069234419846907,723.3262645683135,None,,,,,,,,,,,,,,,,,,,,,,,,,,,483574,2022_May_18_1641,palt,2021.1.2,59.9693752708665,
9,szilva,kecske,,,,,,,,,1,0,1,0,,,,,0,2,2,8,,,,,,,,,725.9671163407038,None,,,,,,,,,,,szilva,726.9869958816271,None,4,5.948199987178668,726.9869958816271,None,726.9869958816271,None,726.9869958816271,None, kecske,732.9798470842652,None,732.9798470842652,None,down,2.515394514979562,732.9798470842652,None,735.5334384950111,None,4,1.2837316187215038,735.5334384950111,None,,,,,,,,,,,,,,,,,,,,,,,,,,,483574,2022_May_18_1641,palt,2021.1.2,59.9693752708665,
3,fogó,limonádé,,,,,,,,,1,0,1,0,,,,,0,3,3,2,,,,,,,,,736.8655621164071,None,,,,,,,,,,,limonádé,737.8750170276035,None,4,6.605009196471656,737.8750170276035,None,737.8750170276035,None,737.8750170276035,None, furulya,744.5127537580265,None,744.5127537580265,None,down,7.558264906692784,744.5127537580265,None,752.1105031277693,None,4,4.306275864102645,752.1105031277693,None,,,,,,,,,,,,,,,,,,,,,,,,,,,483574,2022_May_18_1641,palt,2021.1.2,59.9693752708665,
1,bagoly,kirakó,,,,,,,,,1,0,1,0,,,,,0,4,4,0,,,,,,,,,756.4383426334534,None,,,,,,,,,,,bagoly,757.4679206037254,None,4,6.474897103471449,757.4679206037254,None,757.4679206037254,None,757.4679206037254,None, kitérő,763.9783474105061,None,763.9783474105061,None,down,2.924307528301142,763.9783474105061,None,766.9275930018339,None,4,2.851263899676269,766.9275930018339,None,,,,,,,,,,,,,,,,,,,,,,,,,,,483574,2022_May_18_1641,palt,2021.1.2,59.9693752708665,
5,karton,hentes,,,,,,,,,1,0,1,0,,,,,0,5,5,4,,,,,,,,,769.8076408719644,None,,,,,,,,,,,karton,770.8144945240929,None,4,4.994164583447855,770.8144945240929,None,770.8144945240929,None,770.8144945240929,None, hentes,775.8315849579812,None,775.8315849579812,None,down,2.5589388579828665,775.8315849579812,None,778.4353187164234,None,4,0.8573123557434883,778.4353187164234,None,,,,,,,,,,,,,,,,,,,,,,,,,,,483574,2022_May_18_1641,palt,2021.1.2,59.9693752708665,
6,menta,triatlon,,,,,,,,,1,0,1,0,,,,,0,6,6,5,,,,,,,,,779.3368963284302,None,,,,,,,,,,,triatlon,780.3473178480926,None,4,4.9342308153864,780.3473178480926,None,780.3473178480926,None,780.3473178480926,None, málna,785.3173299711198,None,785.3173299711198,None,down,3.6812129630125128,785.3173299711198,None,789.0308126664022,None,4,8.792588464275468,789.0308126664022,None,,,,,,,,,,,,,,,,,,,,,,,,,,,483574,2022_May_18_1641,palt,2021.1.2,59.9693752708665,
7,csavarhúzó,hering,,,,,,,,,1,0,1,0,,,,,0,7,7,6,,,,,,,,,797.850732389401,None,,,,,,,,,,,hering,798.8837432503642,None,4,3.9225214174657594,798.8837432503642,None,798.8837432503642,None,798.8837432503642,None, csavarhúzó,802.8525651512027,None,802.8525651512027,None,down,3.538100172736449,802.8525651512027,None,806.4315804172656,None,4,1.3038263762136921,806.4315804172656,None,,,,,,,,,,,,,,,,,,,,,,,,,,,483574,2022_May_18_1641,palt,2021.1.2,59.9693752708665,
10,málna,dominó,,,,,,,,,1,0,1,0,,,,,0,8,8,9,,,,,,,,,807.7603809332941,None,,,,,,,,,,,dominó,808.7789586006547,None,4,4.929266839288175,808.7789586006547,None,808.7789586006547,None,808.7789586006547,None, málna,813.7356347613095,None,813.7356347613095,None,down,3.1344857786025386,813.7356347613095,None,816.9063273045758,None,4,0.8671292786020786,816.9063273045758,None,,,,,,,,,,,,,,,,,,,,,,,,,,,483574,2022_May_18_1641,palt,2021.1.2,59.9693752708665,
4,mocsár,ananász,,,,,,,,,1,0,1,0,,,,,0,9,9,3,,,,,,,,,817.8023509609629,None,,,,,,,,,,,mocsár,818.8323945081211,None,4,2.02567732569878,818.8323945081211,None,818.8323945081211,None,818.8323945081211,None, ananász,820.9066361341102,None,820.9066361341102,None,down,4.379330066934926,820.9066361341102,None,825.322631700401,None,4,0.8094195186567958,825.322631700401,None,,,,,,,,,,,,,,,,,,,,,,,,,,,483574,2022_May_18_1641,palt,2021.1.2,59.9693752708665,
,,,,,,,,,,,1,0,1,0,,,,,,,,,,,,,,,,,,,,,,,,,,,,,,,,,,,,,,,,,,,,,,,,,,,,,,,,,,,,,,,,,,,,,,,,,,,4,6.527632624114631,826.190308972582,None,826.190308972582,None,483574,2022_May_18_1641,palt,2021.1.2,59.9693752708665,
10,málna,dominó,,,,,,,,,2,0,2,0,0,0,0,9,,,,,,,,,,,,,836.7862299346307,None,837.757969699247,None,837.757969699247,None,,,,,,,,,,,,,,,,,,,,,,,,,,,,,,,,,,,,,,,832.7566084234277,None,,,,,,,,,,,,,,,,,,,483574,2022_May_18_1641,palt,2021.1.2,59.9693752708665,
2,kötény,tisztás,,,,,,,,,2,0,2,0,0,1,1,1,,,,,,,,,,,,,843.764715432073,None,844.7753282207996,None,844.7753282207996,None,,,,,,,,,,,,,,,,,,,,,,,,,,,,,,,,,,,,,,,,,,,,,,,,,,,,,,,,,,,483574,2022_May_18_1641,palt,2021.1.2,59.9693752708665,
8,szalvéta,puska,,,,,,,,,2,0,2,0,0,2,2,7,,,,,,,,,,,,,850.7616933810932,None,851.7626167596318,None,851.7626167596318,None,,,,,,,,,,,,,,,,,,,,,,,,,,,,,,,,,,,,,,,,,,,,,,,,,,,,,,,,,,,483574,2022_May_18_1641,palt,2021.1.2,59.9693752708665,
6,menta,triatlon,,,,,,,,,2,0,2,0,0,3,3,5,,,,,,,,,,,,,857.7584464723477,None,858.761652639223,None,858.761652639223,None,,,,,,,,,,,,,,,,,,,,,,,,,,,,,,,,,,,,,,,,,,,,,,,,,,,,,,,,,,,483574,2022_May_18_1641,palt,2021.1.2,59.9693752708665,
5,karton,hentes,,,,,,,,,2,0,2,0,0,4,4,4,,,,,,,,,,,,,864.7692135203106,None,865.7776638802316,None,865.7776638802316,None,,,,,,,,,,,,,,,,,,,,,,,,,,,,,,,,,,,,,,,,,,,,,,,,,,,,,,,,,,,483574,2022_May_18_1641,palt,2021.1.2,59.9693752708665,
3,fogó,limonádé,,,,,,,,,2,0,2,0,0,5,5,2,,,,,,,,,,,,,871.7628867133462,None,872.7752731726214,None,872.7752731726214,None,,,,,,,,,,,,,,,,,,,,,,,,,,,,,,,,,,,,,,,,,,,,,,,,,,,,,,,,,,,483574,2022_May_18_1641,palt,2021.1.2,59.9693752708665,
9,szilva,kecske,,,,,,,,,2,0,2,0,0,6,6,8,,,,,,,,,,,,,878.7610716789204,None,879.7709383628389,None,879.7709383628389,None,,,,,,,,,,,,,,,,,,,,,,,,,,,,,,,,,,,,,,,,,,,,,,,,,,,,,,,,,,,483574,2022_May_18_1641,palt,2021.1.2,59.9693752708665,
4,mocsár,ananász,,,,,,,,,2,0,2,0,0,7,7,3,,,,,,,,,,,,,885.7616414429795,None,886.7811424889078,None,886.7811424889078,None,,,,,,,,,,,,,,,,,,,,,,,,,,,,,,,,,,,,,,,,,,,,,,,,,,,,,,,,,,,483574,2022_May_18_1641,palt,2021.1.2,59.9693752708665,
1,bagoly,kirakó,,,,,,,,,2,0,2,0,0,8,8,0,,,,,,,,,,,,,892.7628182918997,None,893.7680926525791,None,893.7680926525791,None,,,,,,,,,,,,,,,,,,,,,,,,,,,,,,,,,,,,,,,,,,,,,,,,,,,,,,,,,,,483574,2022_May_18_1641,palt,2021.1.2,59.9693752708665,
7,csavarhúzó,hering,,,,,,,,,2,0,2,0,0,9,9,6,,,,,,,,,,,,,899.7652547174948,None,900.7777021340444,None,900.7777021340444,None,,,,,,,,,,,,,,,,,,,,,,,,,,,,,,,,,,,,,,,,,,,,,,,,,,,,,,,,,,,483574,2022_May_18_1641,palt,2021.1.2,59.9693752708665,
2,kötény,tisztás,,,,,,,,,2,0,2,0,,,,,0,0,0,1,,,,,,,,,914.612770987791,None,,,,,,,,,,,kötény,915.6151147334313,None,4,3.1578992873546667,915.6151147334313,None,915.6151147334313,None,915.6151147334313,None, tisztás,918.7988029978296,None,918.7988029978296,None,down,3.2702165165683255,918.7988029978296,None,922.1108194214758,None,4,1.2821933801460546,922.1108194214758,None,,,,,,,910.5942583208089,None,906.7570951487287,None,u,1.8883078940270934,906.7570951487287,None,908.6704692405183,None,4,1.8815413237316534,908.6704692405183,None,,,,,,,483574,2022_May_18_1641,palt,2021.1.2,59.9693752708665,
4,mocsár,ananász,,,,,,,,,2,0,2,0,,,,,0,1,1,3,,,,,,,,,923.4199002539681,None,,,,,,,,,,,mocsár,924.4276247245143,None,4,1.3914810942078475,924.4276247245143,None,924.4276247245143,None,924.4276247245143,None, ananász,925.8438072057615,None,925.8438072057615,None,down,3.0891338653163984,925.8438072057615,None,928.9599582131486,None,4,1.098966649529757,928.9599582131486,None,,,,,,,,,,,,,,,,,,,,,,,,,,,483574,2022_May_18_1641,palt,2021.1.2,59.9693752708665,
9,szilva,kecske,,,,,,,,,2,0,2,0,,,,,0,2,2,8,,,,,,,,,930.0878515851509,None,,,,,,,,,,,szilva,931.0991877751949,None,4,3.2338019995368086,931.0991877751949,None,931.0991877751949,None,931.0991877751949,None, kecske,934.3644966078282,None,934.3644966078282,None,down,4.456234531302471,934.3644966078282,None,938.8537818089535,None,4,0.8983313252683729,938.8537818089535,None,,,,,,,,,,,,,,,,,,,,,,,,,,,483574,2022_May_18_1641,palt,2021.1.2,59.9693752708665,
6,menta,triatlon,,,,,,,,,2,0,2,0,,,,,0,3,3,5,,,,,,,,,939.7849526305799,None,,,,,,,,,,,triatlon,940.7945201261609,None,4,1.53928946191445,940.7945201261609,None,940.7945201261609,None,940.7945201261609,None, menta,942.3603135692538,None,942.3603135692538,None,down,2.4444585779565386,942.3603135692538,None,944.826379329752,None,4,0.6824019411869813,944.826379329752,None,,,,,,,,,,,,,,,,,,,,,,,,,,,483574,2022_May_18_1641,palt,2021.1.2,59.9693752708665,
1,bagoly,kirakó,,,,,,,,,2,0,2,0,,,,,0,4,4,0,,,,,,,,,945.5361986784555,None,,,,,,,,,,,bagoly,946.5478253486508,None,4,3.282743861840572,946.5478253486508,None,946.5478253486508,None,946.5478253486508,None, kitérő,949.8774963720934,None,949.8774963720934,None,down,3.1352119789808057,949.8774963720934,None,953.0444372429047,None,4,2.001110293524107,953.0444372429047,None,,,,,,,,,,,,,,,,,,,,,,,,,,,483574,2022_May_18_1641,palt,2021.1.2,59.9693752708665,
10,málna,dominó,,,,,,,,,2,0,2,0,,,,,0,5,5,9,,,,,,,,,955.0651913343463,None,,,,,,,,,,,dominó,956.0815624099923,None,4,2.0480374551552814,956.0815624099923,None,956.0815624099923,None,956.0815624099923,None, málna,958.1572586137918,None,958.1572586137918,None,down,2.343356557248626,958.1572586137918,None,960.5474415665085,None,4,0.7911519248445984,960.5474415665085,None,,,,,,,,,,,,,,,,,,,,,,,,,,,483574,2022_May_18_1641,palt,2021.1.2,59.9693752708665,
3,fogó,limonádé,,,,,,,,,2,0,2,0,,,,,0,6,6,2,,,,,,,,,961.3746092979563,None,,,,,,,,,,,limonádé,962.4014345489559,None,4,2.709065157745499,962.4014345489559,None,962.4014345489559,None,962.4014345489559,None, fogó,965.1404297364352,None,965.1404297364352,None,down,2.064078552823048,965.1404297364352,None,967.24874804297,None,4,0.7880213325552177,967.24874804297,None,,,,,,,,,,,,,,,,,,,,,,,,,,,483574,2022_May_18_1641,palt,2021.1.2,59.9693752708665,
8,szalvéta,puska,,,,,,,,,2,0,2,0,,,,,0,7,7,7,,,,,,,,,968.0662213881733,None,,,,,,,,,,,szalvéta,969.0911177763192,None,4,1.4573706383816898,969.0911177763192,None,969.0911177763192,None,969.0911177763192,None, puska,970.5939196346444,None,970.5939196346444,None,down,3.0904015281703323,970.5939196346444,None,973.726762676466,None,4,0.7386925780738238,973.726762676466,None,,,,,,,,,,,,,,,,,,,,,,,,,,,483574,2022_May_18_1641,palt,2021.1.2,59.9693752708665,
7,csavarhúzó,hering,,,,,,,,,2,0,2,0,,,,,0,8,8,6,,,,,,,,,974.5048125158937,None,,,,,,,,,,,hering,975.5298796466668,None,4,5.369455607869895,975.5298796466668,None,975.5298796466668,None,975.5298796466668,None, csavarhúzó,980.9239274782303,None,980.9239274782303,None,down,3.560483627661597,980.9239274782303,None,984.5098725930438,None,4,0.6784935214382131,984.5098725930438,None,,,,,,,,,,,,,,,,,,,,,,,,,,,483574,2022_May_18_1641,palt,2021.1.2,59.9693752708665,
5,karton,hentes,,,,,,,,,2,0,2,0,,,,,0,9,9,4,,,,,,,,,985.2190102153108,None,,,,,,,,,,,karton,986.2430298759136,None,4,1.4475254139106255,986.2430298759136,None,986.2430298759136,None,986.2430298759136,None, hentes,987.7277821560565,None,987.7277821560565,None,down,2.74034464507713,987.7277821560565,None,990.4933460140892,None,4,0.6879307052295189,990.4933460140892,None,,,,,,,,,,,,,,,,,,,,,,,,,,,483574,2022_May_18_1641,palt,2021.1.2,59.9693752708665,
,,,,,,,,,,,2,0,2,0,,,,,,,,,,,,,,,,,,,,,,,,,,,,,,,,,,,,,,,,,,,,,,,,,,,,,,,,,,,,,,,,,,,,,,,,,,,4,29.715195408527507,991.2536361334787,None,991.2536361334787,None,483574,2022_May_18_1641,palt,2021.1.2,59.9693752708665,
9,szilva,kecske,,,,,,,,,3,0,3,0,0,0,0,8,,,,,,,,,,,,,1025.012276984955,None,1026.0136429258564,None,1026.0136429258564,None,,,,,,,,,,,,,,,,,,,,,,,,,,,,,,,,,,,,,,,1021.0048653870181,None,,,,,,,,,,,,,,,,,,,483574,2022_May_18_1641,palt,2021.1.2,59.9693752708665,
6,menta,triatlon,,,,,,,,,3,0,3,0,0,1,1,5,,,,,,,,,,,,,1032.0095678065845,None,1033.012039997935,None,1033.012039997935,None,,,,,,,,,,,,,,,,,,,,,,,,,,,,,,,,,,,,,,,,,,,,,,,,,,,,,,,,,,,483574,2022_May_18_1641,palt,2021.1.2,59.9693752708665,
8,szalvéta,puska,,,,,,,,,3,0,3,0,0,2,2,7,,,,,,,,,,,,,1039.014793650218,None,1040.0174583546468,None,1040.0174583546468,None,,,,,,,,,,,,,,,,,,,,,,,,,,,,,,,,,,,,,,,,,,,,,,,,,,,,,,,,,,,483574,2022_May_18_1641,palt,2021.1.2,59.9693752708665,
1,bagoly,kirakó,,,,,,,,,3,0,3,0,0,3,3,0,,,,,,,,,,,,,1046.0065015926666,None,1047.0316271926567,None,1047.0316271926567,None,,,,,,,,,,,,,,,,,,,,,,,,,,,,,,,,,,,,,,,,,,,,,,,,,,,,,,,,,,,483574,2022_May_18_1641,palt,2021.1.2,59.9693752708665,
3,fogó,limonádé,,,,,,,,,3,0,3,0,0,4,4,2,,,,,,,,,,,,,1053.0114357121347,None,1054.0211021077994,None,1054.0211021077994,None,,,,,,,,,,,,,,,,,,,,,,,,,,,,,,,,,,,,,,,,,,,,,,,,,,,,,,,,,,,483574,2022_May_18_1641,palt,2021.1.2,59.9693752708665,
2,kötény,tisztás,,,,,,,,,3,0,3,0,0,5,5,1,,,,,,,,,,,,,1060.012533565372,None,1061.0237322904868,None,1061.0237322904868,None,,,,,,,,,,,,,,,,,,,,,,,,,,,,,,,,,,,,,,,,,,,,,,,,,,,,,,,,,,,483574,2022_May_18_1641,palt,2021.1.2,59.9693752708665,
5,karton,hentes,,,,,,,,,3,0,3,0,0,6,6,4,,,,,,,,,,,,,1067.0137244095968,None,1068.0251980645407,None,1068.0251980645407,None,,,,,,,,,,,,,,,,,,,,,,,,,,,,,,,,,,,,,,,,,,,,,,,,,,,,,,,,,,,483574,2022_May_18_1641,palt,2021.1.2,59.9693752708665,
4,mocsár,ananász,,,,,,,,,3,0,3,0,0,7,7,3,,,,,,,,,,,,,1074.0130457932246,None,1075.0249965322728,None,1075.0249965322728,None,,,,,,,,,,,,,,,,,,,,,,,,,,,,,,,,,,,,,,,,,,,,,,,,,,,,,,,,,,,483574,2022_May_18_1641,palt,2021.1.2,59.9693752708665,
10,málna,dominó,,,,,,,,,3,0,3,0,0,8,8,9,,,,,,,,,,,,,1081.0067587950907,None,1082.0186218302988,None,1082.0186218302988,None,,,,,,,,,,,,,,,,,,,,,,,,,,,,,,,,,,,,,,,,,,,,,,,,,,,,,,,,,,,483574,2022_May_18_1641,palt,2021.1.2,59.9693752708665,
7,csavarhúzó,hering,,,,,,,,,3,0,3,0,0,9,9,6,,,,,,,,,,,,,1088.0089103386563,None,1089.0287724632071,None,1089.0287724632071,None,,,,,,,,,,,,,,,,,,,,,,,,,,,,,,,,,,,,,,,,,,,,,,,,,,,,,,,,,,,483574,2022_May_18_1641,palt,2021.1.2,59.9693752708665,
10,málna,dominó,,,,,,,,,3,0,3,0,,,,,0,0,0,9,,,,,,,,,1102.5274108763842,None,,,,,,,,,,,dominó,1103.5144807776087,None,4,2.3803097376949154,1103.5144807776087,None,1103.5144807776087,None,1103.5144807776087,None, málna,1105.9390657237673,None,1105.9390657237673,None,down,2.9758574918087106,1105.9390657237673,None,1108.9379915070313,None,4,0.7380867372557987,1108.9379915070313,None,,,,,,,1098.5039724870876,None,1095.0111698014953,None,u,1.663914465723792,1095.0111698014953,None,1096.6997439793777,None,4,1.7653026125044562,1096.6997439793777,None,,,,,,,483574,2022_May_18_1641,palt,2021.1.2,59.9693752708665,
5,karton,hentes,,,,,,,,,3,0,3,0,,,,,0,1,1,4,,,,,,,,,1109.6971305910265,None,,,,,,,,,,,karton,1110.7170415436267,None,4,1.2548207575746346,1110.7170415436267,None,1110.7170415436267,None,1110.7170415436267,None, hentes,1112.000790267717,None,1112.000790267717,None,down,2.3699628595786635,1112.000790267717,None,1114.410516563279,None,4,0.8372524309670553,1114.410516563279,None,,,,,,,,,,,,,,,,,,,,,,,,,,,483574,2022_May_18_1641,palt,2021.1.2,59.9693752708665,
6,menta,triatlon,,,,,,,,,3,0,3,0,,,,,0,2,2,5,,,,,,,,,1115.2808405015094,None,,,,,,,,,,,triatlon,1116.3016888279526,None,4,1.7612872064928524,1116.3016888279526,None,1116.3016888279526,None,1116.3016888279526,None, menta,1118.0893528139568,None,1118.0893528139568,None,down,2.569462698796997,1118.0893528139568,None,1120.6853440634732,None,4,0.4624101890658494,1120.6853440634732,None,,,,,,,,,,,,,,,,,,,,,,,,,,,483574,2022_May_18_1641,palt,2021.1.2,59.9693752708665,
9,szilva,kecske,,,,,,,,,3,0,3,0,,,,,0,3,3,8,,,,,,,,,1121.1902389961178,None,,,,,,,,,,,szilva,1122.1994678055053,None,4,1.4795852167299017,1122.1994678055053,None,1122.1994678055053,None,1122.1994678055053,None, kecske,1123.7161309163494,None,1123.7161309163494,None,down,2.238605807244312,1123.7161309163494,None,1125.984738595842,None,4,0.813852917519398,1125.984738595842,None,,,,,,,,,,,,,,,,,,,,,,,,,,,483574,2022_May_18_1641,palt,2021.1.2,59.9693752708665,
2,kötény,tisztás,,,,,,,,,3,0,3,0,,,,,0,4,4,1,,,,,,,,,1126.8368316390552,None,,,,,,,,,,,kötény,1127.8586440859071,None,4,3.11096372854081,1127.8586440859071,None,1127.8586440859071,None,1127.8586440859071,None, tisztás,1130.9975153683918,None,1130.9975153683918,None,down,2.717069845239166,1130.9975153683918,None,1133.7412798418372,None,4,0.6704633313929662,1133.7412798418372,None,,,,,,,,,,,,,,,,,,,,,,,,,,,483574,2022_May_18_1641,palt,2021.1.2,59.9693752708665,
3,fogó,limonádé,,,,,,,,,3,0,3,0,,,,,0,5,5,2,,,,,,,,,1134.4367039397475,None,,,,,,,,,,,limonádé,1135.4568201566872,None,4,4.379732509434689,1135.4568201566872,None,1135.4568201566872,None,1135.4568201566872,None, fogó,1139.870754371339,None,1139.870754371339,None,down,2.2438922971487045,1139.870754371339,None,1142.1377479266666,None,4,0.726065399707295,1142.1377479266666,None,,,,,,,,,,,,,,,,,,,,,,,,,,,483574,2022_May_18_1641,palt,2021.1.2,59.9693752708665,
4,mocsár,ananász,,,,,,,,,3,0,3,0,,,,,0,6,6,3,,,,,,,,,1142.8994014989294,None,,,,,,,,,,,mocsár,1143.910347064666,None,4,1.0403462622780353,1143.910347064666,None,1143.910347064666,None,1143.910347064666,None, ananász,1144.9760985219036,None,1144.9760985219036,None,down,3.5543428026721813,1144.9760985219036,None,1148.5582002173178,None,4,0.46922309935325757,1148.5582002173178,None,,,,,,,,,,,,,,,,,,,,,,,,,,,483574,2022_May_18_1641,palt,2021.1.2,59.9693752708665,
1,bagoly,kirakó,,,,,,,,,3,0,3,0,,,,,0,7,7,0,,,,,,,,,1149.0533351413033,None,,,,,,,,,,,bagoly,1150.0631004370807,None,4,3.19325949207996,1150.0631004370807,None,1150.0631004370807,None,1150.0631004370807,None, kirakó,1153.2793087940663,None,1153.2793087940663,None,down,2.370943152345717,1153.2793087940663,None,1155.6912618967763,None,4,1.556063291092869,1155.6912618967763,None,,,,,,,,,,,,,,,,,,,,,,,,,,,483574,2022_May_18_1641,palt,2021.1.2,59.9693752708665,
7,csavarhúzó,hering,,,,,,,,,3,0,3,0,,,,,0,8,8,6,,,,,,,,,1157.2793184352631,None,,,,,,,,,,,hering,1158.3012104998052,None,4,6.932386857341044,1158.3012104998052,None,1158.3012104998052,None,1158.3012104998052,None, csavarhúzó,1165.27345036302,None,1165.27345036302,None,down,3.81695676324307,1165.27345036302,None,1169.1116544741672,None,4,0.9115425740019418,1169.1116544741672,None,,,,,,,,,,,,,,,,,,,,,,,,,,,483574,2022_May_18_1641,palt,2021.1.2,59.9693752708665,
8,szalvéta,puska,,,,,,,,,3,0,3,0,,,,,0,9,9,7,,,,,,,,,1170.0460697164817,None,,,,,,,,,,,szalvéta,1171.0696881785698,None,4,1.9524554903036915,1171.0696881785698,None,1171.0696881785698,None,1171.0696881785698,None, puska,1173.0453407170426,None,1173.0453407170426,None,down,2.652698013233021,1173.0453407170426,None,1175.7374805854051,None,4,0.706635885318974,1175.7374805854051,None,,,,,,,,,,,,,,,,,,,,,,,,,,,483574,2022_May_18_1641,palt,2021.1.2,59.9693752708665,
