itemno,wordA,wordB,enc_gyak.thisRepN,enc_gyak.thisTrialN,enc_gyak.thisN,enc_gyak.thisIndex,rec_gyak.thisRepN,rec_gyak.thisTrialN,rec_gyak.thisN,rec_gyak.thisIndex,repeat_task.thisRepN,repeat_task.thisTrialN,repeat_task.thisN,repeat_task.thisIndex,enc_loop.thisRepN,enc_loop.thisTrialN,enc_loop.thisN,enc_loop.thisIndex,test_loop.thisRepN,test_loop.thisTrialN,test_loop.thisN,test_loop.thisIndex,int.started,int.stopped,int_key.keys,int_key.rt,int_key.started,int_key.stopped,prepare_gyak_text.started,prepare_gyak_text.stopped,fix.started,fix.stopped,word1.started,word1.stopped,word2.started,word2.stopped,gykrec_inst.started,gykrec_inst.stopped,gyakrec_inst.keys,gyakrec_inst.rt,gyakrec_inst.started,gyakrec_inst.stopped,cueword,cueword1.started,cueword1.stopped,cue_resp.keys,cue_resp.rt,cue_resp.started,cue_resp.stopped,cue_cont_text.started,cue_cont_text.stopped,cue_space.started,cue_space.stopped,test_ansbox.text,test_ansbox.started,test_ansbox.stopped,ans_text.started,ans_text.stopped,ans_continue.keys,ans_continue.rt,ans_continue.started,ans_continue.stopped,feedback_text.started,feedback_text.stopped,feedback_cont.keys,feedback_cont.rt,feedback_cont.started,feedback_cont.stopped,main_prep.started,main_prep.stopped,main_prep_resp.keys,main_prep_resp.rt,main_prep_resp.started,main_prep_resp.stopped,preparation.started,preparation.stopped,break_text.started,break_text.stopped,key_resp.keys,key_resp.rt,key_resp.started,key_resp.stopped,test_instruction.started,test_instruction.stopped,test_i_key.keys,test_i_key.rt,test_i_key.started,test_i_key.stopped,rep_routine.keys,rep_routine.rt,rep_routine.started,rep_routine.stopped,encrep_textbox.started,encrep_textbox.stopped,Résztvevő kódja,date,expName,psychopyVersion,frameRate,
,,,,,,,,,,,,,,,,,,,,,,,18.376941536553204,None,4,100.99803319433704,18.376941536553204,None,,,,,,,,,,,,,,,,,,,,,,,,,,,,,,,,,,,,,,,,,,,,,,,,,,,,,,,,,,,,,,,,,,,505193,2022_Jun_15_1711,palt,2021.1.2,51.869944655712324,
3,majoránna,szikla,0,0,0,2,,,,,,,,,,,,,,,,,,,,,,,119.40509416349232,None,122.43467617686838,None,123.43594384007156,None,123.43594384007156,None,,,,,,,,,,,,,,,,,,,,,,,,,,,,,,,,,,,,,,,,,,,,,,,,,,,,,,,,,,,505193,2022_Jun_15_1711,palt,2021.1.2,51.869944655712324,
2,lepke,szintetizátor,0,1,1,1,,,,,,,,,,,,,,,,,,,,,,,,,129.416670139879,None,130.42708948254585,None,130.42708948254585,None,,,,,,,,,,,,,,,,,,,,,,,,,,,,,,,,,,,,,,,,,,,,,,,,,,,,,,,,,,,505193,2022_Jun_15_1711,palt,2021.1.2,51.869944655712324,
4,kard,harcsa,0,2,2,3,,,,,,,,,,,,,,,,,,,,,,,,,136.4129442810081,None,137.43362621869892,None,137.43362621869892,None,,,,,,,,,,,,,,,,,,,,,,,,,,,,,,,,,,,,,,,,,,,,,,,,,,,,,,,,,,,505193,2022_Jun_15_1711,palt,2021.1.2,51.869944655712324,
1,sapka,beton,0,3,3,0,,,,,,,,,,,,,,,,,,,,,,,,,143.4147583823651,None,144.42731091892347,None,144.42731091892347,None,,,,,,,,,,,,,,,,,,,,,,,,,,,,,,,,,,,,,,,,,,,,,,,,,,,,,,,,,,,505193,2022_Jun_15_1711,palt,2021.1.2,51.869944655712324,
,,,,,,,,,,,,,,,,,,,,,,,,,,,,,,,,,,,,,150.41573338769376,None,4,5.466432748362422,150.41573338769376,None,,,,,,,,,,,,,,,,,,,,,,,,,,,,,,,,,,,,,,,,,,,,,,,,,,,,,505193,2022_Jun_15_1711,palt,2021.1.2,51.869944655712324,
4,kard,harcsa,,,,,0,0,0,3,,,,,,,,,,,,,,,,,,,,,155.91859091632068,None,,,,,,,,,,,kard,156.934392538853,None,4,4.744762804359198,156.934392538853,None,156.934392538853,None,156.934392538853,None,harcsa,161.7336502284743,None,161.7336502284743,None,down,2.3915687981061637,161.7336502284743,None,164.17205910617486,None,4,2.177033034618944,164.17205910617486,None,,,,,,,,,,,,,,,,,,,,,,,,,,,505193,2022_Jun_15_1711,palt,2021.1.2,51.869944655712324,
1,sapka,beton,,,,,0,1,1,0,,,,,,,,,,,,,,,,,,,,,166.3734420905821,None,,,,,,,,,,,sapka,167.3927123695612,None,4,12.070271004922688,167.3927123695612,None,167.3927123695612,None,167.3927123695612,None, ,179.50414882786572,None,179.50414882786572,None,down,2.380807970184833,179.50414882786572,None,181.93371361168101,None,4,6.5172002194449306,181.93371361168101,None,,,,,,,,,,,,,,,,,,,,,,,,,,,505193,2022_Jun_15_1711,palt,2021.1.2,51.869944655712324,
3,majoránna,szikla,,,,,0,2,2,2,,,,,,,,,,,,,,,,,,,,,188.495879474096,None,,,,,,,,,,,szikla,189.5142882647924,None,4,3.918440389446914,189.5142882647924,None,189.5142882647924,None,189.5142882647924,None, majoránna,193.46264126710594,None,193.46264126710594,None,down,5.8944648914039135,193.46264126710594,None,199.40490569360554,None,4,1.803070008289069,199.40490569360554,None,,,,,,,,,,,,,,,,,,,,,,,,,,,505193,2022_Jun_15_1711,palt,2021.1.2,51.869944655712324,
2,lepke,szintetizátor,,,,,0,3,3,1,,,,,,,,,,,,,,,,,,,,,201.2414801302366,None,,,,,,,,,,,lepke,202.26292279036716,None,4,11.057991221081465,202.26292279036716,None,202.26292279036716,None,202.26292279036716,None, ,213.35869322530925,None,213.35869322530925,None,down,1.8062512944452465,213.35869322530925,None,215.21210586931556,None,4,33.2961613079533,215.21210586931556,None,,,,,,,,,,,,,,,,,,,,,,,,,,,505193,2022_Jun_15_1711,palt,2021.1.2,51.869944655712324,
,,,,,,,,,,,,,,,,,,,,,,,,,,,,,,,,,,,,,,,,,,,,,,,,,,,,,,,,,,,,,,,,,,,,,248.5367889693007,None,4,2.9297081576660275,248.5367889693007,None,,,,,,,,,,,,,,,,,,,,,505193,2022_Jun_15_1711,palt,2021.1.2,51.869944655712324,
10,málna,dominó,,,,,,,,,0,0,0,0,0,0,0,9,,,,,,,,,,,,,255.5289870579727,None,256.52499808743596,None,256.52499808743596,None,,,,,,,,,,,,,,,,,,,,,,,,,,,,,,,,,,,,,,,251.5008282107301,None,,,,,,,,,,,,,,,,,,,505193,2022_Jun_15_1711,palt,2021.1.2,51.869944655712324,
3,fogó,limonádé,,,,,,,,,0,0,0,0,0,1,1,2,,,,,,,,,,,,,262.4979974287562,None,263.5107480767183,None,263.5107480767183,None,,,,,,,,,,,,,,,,,,,,,,,,,,,,,,,,,,,,,,,,,,,,,,,,,,,,,,,,,,,505193,2022_Jun_15_1711,palt,2021.1.2,51.869944655712324,
6,menta,triatlon,,,,,,,,,0,0,0,0,0,2,2,5,,,,,,,,,,,,,269.51178186247125,None,270.5206346651539,None,270.5206346651539,None,,,,,,,,,,,,,,,,,,,,,,,,,,,,,,,,,,,,,,,,,,,,,,,,,,,,,,,,,,,505193,2022_Jun_15_1711,palt,2021.1.2,51.869944655712324,
9,szilva,kecske,,,,,,,,,0,0,0,0,0,3,3,8,,,,,,,,,,,,,276.5113318362273,None,277.5196033674292,None,277.5196033674292,None,,,,,,,,,,,,,,,,,,,,,,,,,,,,,,,,,,,,,,,,,,,,,,,,,,,,,,,,,,,505193,2022_Jun_15_1711,palt,2021.1.2,51.869944655712324,
1,bagoly,kirakó,,,,,,,,,0,0,0,0,0,4,4,0,,,,,,,,,,,,,283.4968479485251,None,284.5143551309593,None,284.5143551309593,None,,,,,,,,,,,,,,,,,,,,,,,,,,,,,,,,,,,,,,,,,,,,,,,,,,,,,,,,,,,505193,2022_Jun_15_1711,palt,2021.1.2,51.869944655712324,
7,csavarhúzó,hering,,,,,,,,,0,0,0,0,0,5,5,6,,,,,,,,,,,,,290.4984446563758,None,291.5184523318894,None,291.5184523318894,None,,,,,,,,,,,,,,,,,,,,,,,,,,,,,,,,,,,,,,,,,,,,,,,,,,,,,,,,,,,505193,2022_Jun_15_1711,palt,2021.1.2,51.869944655712324,
5,karton,hentes,,,,,,,,,0,0,0,0,0,6,6,4,,,,,,,,,,,,,297.5031819087453,None,298.5155413104221,None,298.5155413104221,None,,,,,,,,,,,,,,,,,,,,,,,,,,,,,,,,,,,,,,,,,,,,,,,,,,,,,,,,,,,505193,2022_Jun_15_1711,palt,2021.1.2,51.869944655712324,
2,kötény,tisztás,,,,,,,,,0,0,0,0,0,7,7,1,,,,,,,,,,,,,304.51103295898065,None,305.5177541221492,None,305.5177541221492,None,,,,,,,,,,,,,,,,,,,,,,,,,,,,,,,,,,,,,,,,,,,,,,,,,,,,,,,,,,,505193,2022_Jun_15_1711,palt,2021.1.2,51.869944655712324,
8,szalvéta,puska,,,,,,,,,0,0,0,0,0,8,8,7,,,,,,,,,,,,,311.5111222178675,None,312.52498253714293,None,312.52498253714293,None,,,,,,,,,,,,,,,,,,,,,,,,,,,,,,,,,,,,,,,,,,,,,,,,,,,,,,,,,,,505193,2022_Jun_15_1711,palt,2021.1.2,51.869944655712324,
4,mocsár,ananász,,,,,,,,,0,0,0,0,0,9,9,3,,,,,,,,,,,,,318.51010833634064,None,319.5257538333535,None,319.5257538333535,None,,,,,,,,,,,,,,,,,,,,,,,,,,,,,,,,,,,,,,,,,,,,,,,,,,,,,,,,,,,505193,2022_Jun_15_1711,palt,2021.1.2,51.869944655712324,
1,bagoly,kirakó,,,,,,,,,0,0,0,0,,,,,0,0,0,0,,,,,,,,,335.59637751989067,None,,,,,,,,,,,bagoly,336.5969298677519,None,4,6.119253919925541,336.5969298677519,None,336.5969298677519,None,336.5969298677519,None, kecske,342.76641974831,None,342.76641974831,None,down,4.092681517358869,342.76641974831,None,346.8897515865974,None,4,12.329129250254482,346.8897515865974,None,,,,,,,331.57920404709876,None,325.50849856622517,None,u,1.5427873530425131,325.50849856622517,None,327.1061362843029,None,4,4.438086052890867,327.1061362843029,None,,,,,,,505193,2022_Jun_15_1711,palt,2021.1.2,51.869944655712324,
5,karton,hentes,,,,,,,,,0,0,0,0,,,,,0,1,1,4,,,,,,,,,359.2451291703619,None,,,,,,,,,,,karton,360.26485569635406,None,None,,360.26485569635406,None,360.26485569635406,None,360.26485569635406,None, ,375.2563854320906,None,375.2563854320906,None,down,5.394296947866678,375.2563854320906,None,380.67311777267605,None,4,5.522491374518722,380.67311777267605,None,,,,,,,,,,,,,,,,,,,,,,,,,,,505193,2022_Jun_15_1711,palt,2021.1.2,51.869944655712324,
4,mocsár,ananász,,,,,,,,,0,0,0,0,,,,,0,2,2,3,,,,,,,,,386.2271937318146,None,,,,,,,,,,,mocsár,387.2475316962227,None,None,,387.2475316962227,None,387.2475316962227,None,387.2475316962227,None, ,402.23775396030396,None,402.23775396030396,None,down,1.6286708884872496,402.23775396030396,None,403.8931107688695,None,4,3.081294322386384,403.8931107688695,None,,,,,,,,,,,,,,,,,,,,,,,,,,,505193,2022_Jun_15_1711,palt,2021.1.2,51.869944655712324,
7,csavarhúzó,hering,,,,,,,,,0,0,0,0,,,,,0,3,3,6,,,,,,,,,406.99912544945255,None,,,,,,,,,,,hering,408.0136208445765,None,None,,408.0136208445765,None,408.0136208445765,None,408.0136208445765,None, ,423.02600637078285,None,423.02600637078285,None,down,1.7364564407616854,423.02600637078285,None,424.7894740444608,None,4,53.54612756334245,424.7894740444608,None,,,,,,,,,,,,,,,,,,,,,,,,,,,505193,2022_Jun_15_1711,palt,2021.1.2,51.869944655712324,
9,szilva,kecske,,,,,,,,,0,0,0,0,,,,,0,4,4,8,,,,,,,,,478.359038753435,None,,,,,,,,,,,kecske,479.38351745996624,None,4,4.1310280077159405,479.38351745996624,None,479.38351745996624,None,479.38351745996624,None, ,483.55692384624854,None,483.55692384624854,None,down,1.780672558117658,483.55692384624854,None,485.36791985761374,None,4,2.452579892706126,485.36791985761374,None,,,,,,,,,,,,,,,,,,,,,,,,,,,505193,2022_Jun_15_1711,palt,2021.1.2,51.869944655712324,
2,kötény,tisztás,,,,,,,,,0,0,0,0,,,,,0,5,5,1,,,,,,,,,487.8548320783302,None,,,,,,,,,,,kötény,488.8757836590521,None,4,9.010767358820885,488.8757836590521,None,488.8757836590521,None,488.8757836590521,None, ,497.92729972302914,None,497.92729972302914,None,down,1.842060904018581,497.92729972302914,None,499.8071121610701,None,4,1.3942089332267642,499.8071121610701,None,,,,,,,,,,,,,,,,,,,,,,,,,,,505193,2022_Jun_15_1711,palt,2021.1.2,51.869944655712324,
6,menta,triatlon,,,,,,,,,0,0,0,0,,,,,0,6,6,5,,,,,,,,,501.23362068273127,None,,,,,,,,,,,menta,502.2458413755521,None,4,11.159350133035332,502.2458413755521,None,502.2458413755521,None,502.2458413755521,None, ,513.4524368299171,None,513.4524368299171,None,down,1.1807514294050634,513.4524368299171,None,514.6666609649546,None,4,1.070746534038335,514.6666609649546,None,,,,,,,,,,,,,,,,,,,,,,,,,,,505193,2022_Jun_15_1711,palt,2021.1.2,51.869944655712324,
8,szalvéta,puska,,,,,,,,,0,0,0,0,,,,,0,7,7,7,,,,,,,,,515.7766049029306,None,,,,,,,,,,,puska,516.7937111980282,None,4,6.834390859119594,516.7937111980282,None,516.7937111980282,None,516.7937111980282,None, ,523.6605991357937,None,523.6605991357937,None,down,2.108327014837414,523.6605991357937,None,525.8090363587253,None,4,1.0680109201930463,525.8090363587253,None,,,,,,,,,,,,,,,,,,,,,,,,,,,505193,2022_Jun_15_1711,palt,2021.1.2,51.869944655712324,
10,málna,dominó,,,,,,,,,0,0,0,0,,,,,0,8,8,9,,,,,,,,,526.8963604765013,None,,,,,,,,,,,dominó,527.9122342527844,None,4,5.014743578154594,527.9122342527844,None,527.9122342527844,None,527.9122342527844,None, ,532.9673536387272,None,532.9673536387272,None,down,1.5857183909974992,532.9673536387272,None,534.5756224952638,None,4,0.925193274859339,534.5756224952638,None,,,,,,,,,,,,,,,,,,,,,,,,,,,505193,2022_Jun_15_1711,palt,2021.1.2,51.869944655712324,
3,fogó,limonádé,,,,,,,,,0,0,0,0,,,,,0,9,9,2,,,,,,,,,535.5418027061969,None,,,,,,,,,,,limonádé,536.5555392452516,None,4,7.665174042340368,536.5555392452516,None,536.5555392452516,None,536.5555392452516,None, ,544.2623919020407,None,544.2623919020407,None,down,1.330431123264134,544.2623919020407,None,545.6263262098655,None,4,1.2883500666357577,545.6263262098655,None,,,,,,,,,,,,,,,,,,,,,,,,,,,505193,2022_Jun_15_1711,palt,2021.1.2,51.869944655712324,
,,,,,,,,,,,0,0,0,0,,,,,,,,,,,,,,,,,,,,,,,,,,,,,,,,,,,,,,,,,,,,,,,,,,,,,,,,,,,,,,,,,,,,,,,,,,,4,29.902454028837383,546.9770921883173,None,546.9770921883173,None,505193,2022_Jun_15_1711,palt,2021.1.2,51.869944655712324,
7,csavarhúzó,hering,,,,,,,,,1,0,1,0,0,0,0,6,,,,,,,,,,,,,580.9488164023496,None,581.9450762374327,None,581.9450762374327,None,,,,,,,,,,,,,,,,,,,,,,,,,,,,,,,,,,,,,,,576.9250486572273,None,,,,,,,,,,,,,,,,,,,505193,2022_Jun_15_1711,palt,2021.1.2,51.869944655712324,
2,kötény,tisztás,,,,,,,,,1,0,1,0,0,1,1,1,,,,,,,,,,,,,587.9346973253414,None,588.947605653666,None,588.947605653666,None,,,,,,,,,,,,,,,,,,,,,,,,,,,,,,,,,,,,,,,,,,,,,,,,,,,,,,,,,,,505193,2022_Jun_15_1711,palt,2021.1.2,51.869944655712324,
5,karton,hentes,,,,,,,,,1,0,1,0,0,2,2,4,,,,,,,,,,,,,594.9267293368466,None,595.9367683185264,None,595.9367683185264,None,,,,,,,,,,,,,,,,,,,,,,,,,,,,,,,,,,,,,,,,,,,,,,,,,,,,,,,,,,,505193,2022_Jun_15_1711,palt,2021.1.2,51.869944655712324,
9,szilva,kecske,,,,,,,,,1,0,1,0,0,3,3,8,,,,,,,,,,,,,601.9281005649827,None,602.9495811676607,None,602.9495811676607,None,,,,,,,,,,,,,,,,,,,,,,,,,,,,,,,,,,,,,,,,,,,,,,,,,,,,,,,,,,,505193,2022_Jun_15_1711,palt,2021.1.2,51.869944655712324,
8,szalvéta,puska,,,,,,,,,1,0,1,0,0,4,4,7,,,,,,,,,,,,,608.9282482927665,None,609.9463647375815,None,609.9463647375815,None,,,,,,,,,,,,,,,,,,,,,,,,,,,,,,,,,,,,,,,,,,,,,,,,,,,,,,,,,,,505193,2022_Jun_15_1711,palt,2021.1.2,51.869944655712324,
4,mocsár,ananász,,,,,,,,,1,0,1,0,0,5,5,3,,,,,,,,,,,,,615.9277379312553,None,616.9411898991093,None,616.9411898991093,None,,,,,,,,,,,,,,,,,,,,,,,,,,,,,,,,,,,,,,,,,,,,,,,,,,,,,,,,,,,505193,2022_Jun_15_1711,palt,2021.1.2,51.869944655712324,
3,fogó,limonádé,,,,,,,,,1,0,1,0,0,6,6,2,,,,,,,,,,,,,622.9289122917689,None,623.9458406912163,None,623.9458406912163,None,,,,,,,,,,,,,,,,,,,,,,,,,,,,,,,,,,,,,,,,,,,,,,,,,,,,,,,,,,,505193,2022_Jun_15_1711,palt,2021.1.2,51.869944655712324,
10,málna,dominó,,,,,,,,,1,0,1,0,0,7,7,9,,,,,,,,,,,,,629.9245243002661,None,630.9454743256792,None,630.9454743256792,None,,,,,,,,,,,,,,,,,,,,,,,,,,,,,,,,,,,,,,,,,,,,,,,,,,,,,,,,,,,505193,2022_Jun_15_1711,palt,2021.1.2,51.869944655712324,
1,bagoly,kirakó,,,,,,,,,1,0,1,0,0,8,8,0,,,,,,,,,,,,,636.9409336294048,None,637.9561160379089,None,637.9561160379089,None,,,,,,,,,,,,,,,,,,,,,,,,,,,,,,,,,,,,,,,,,,,,,,,,,,,,,,,,,,,505193,2022_Jun_15_1711,palt,2021.1.2,51.869944655712324,
6,menta,triatlon,,,,,,,,,1,0,1,0,0,9,9,5,,,,,,,,,,,,,643.9286040845327,None,644.9397368761711,None,644.9397368761711,None,,,,,,,,,,,,,,,,,,,,,,,,,,,,,,,,,,,,,,,,,,,,,,,,,,,,,,,,,,,505193,2022_Jun_15_1711,palt,2021.1.2,51.869944655712324,
5,karton,hentes,,,,,,,,,1,0,1,0,,,,,0,0,0,4,,,,,,,,,661.0082634449936,None,,,,,,,,,,,karton,661.9978064708412,None,None,,661.9978064708412,None,661.9978064708412,None,661.9978064708412,None, ,677.0033772205934,None,677.0033772205934,None,down,4.892261720728129,677.0033772205934,None,681.9297737800516,None,4,6.536357291508466,681.9297737800516,None,,,,,,,656.9959202157333,None,650.9268344570883,None,u,1.7688487097620964,650.9268344570883,None,652.7274503121153,None,4,4.233075177296996,652.7274503121153,None,,,,,,,505193,2022_Jun_15_1711,palt,2021.1.2,51.869944655712324,
2,kötény,tisztás,,,,,,,,,1,0,1,0,,,,,0,1,1,1,,,,,,,,,688.506163217593,None,,,,,,,,,,,kötény,689.532441096846,None,4,10.433612534310669,689.532441096846,None,689.532441096846,None,689.532441096846,None, triatlon,699.9912523180246,None,699.9912523180246,None,down,3.0397310913540423,699.9912523180246,None,703.0551470657811,None,4,10.037734117824584,703.0551470657811,None,,,,,,,,,,,,,,,,,,,,,,,,,,,505193,2022_Jun_15_1711,palt,2021.1.2,51.869944655712324,
10,málna,dominó,,,,,,,,,1,0,1,0,,,,,0,2,2,9,,,,,,,,,713.1367604807019,None,,,,,,,,,,,dominó,714.1546079046093,None,None,,714.1546079046093,None,714.1546079046093,None,714.1546079046093,None, ,729.1564204511233,None,729.1564204511233,None,down,1.5547548863105476,729.1564204511233,None,730.7469414058141,None,4,4.115610789041966,730.7469414058141,None,,,,,,,,,,,,,,,,,,,,,,,,,,,505193,2022_Jun_15_1711,palt,2021.1.2,51.869944655712324,
6,menta,triatlon,,,,,,,,,1,0,1,0,,,,,0,3,3,5,,,,,,,,,734.8936830209568,None,,,,,,,,,,,menta,735.9088439699262,None,4,6.004639596212655,735.9088439699262,None,735.9088439699262,None,735.9088439699262,None, triatlon,741.9589841407724,None,741.9589841407724,None,down,2.527585661970079,741.9589841407724,None,744.5450393520296,None,4,3.501399529632181,744.5450393520296,None,,,,,,,,,,,,,,,,,,,,,,,,,,,505193,2022_Jun_15_1711,palt,2021.1.2,51.869944655712324,
8,szalvéta,puska,,,,,,,,,1,0,1,0,,,,,0,4,4,7,,,,,,,,,748.0876444550231,None,,,,,,,,,,,puska,749.1111139450222,None,None,,749.1111139450222,None,749.1111139450222,None,749.1111139450222,None, szalvéta,764.092808408197,None,764.092808408197,None,down,5.257588405627757,764.092808408197,None,769.3769595748745,None,4,7.955160625744611,769.3769595748745,None,,,,,,,,,,,,,,,,,,,,,,,,,,,505193,2022_Jun_15_1711,palt,2021.1.2,51.869944655712324,
1,bagoly,kirakó,,,,,,,,,1,0,1,0,,,,,0,5,5,0,,,,,,,,,777.373500559479,None,,,,,,,,,,,bagoly,778.3921780600213,None,None,,778.3921780600213,None,778.3921780600213,None,778.3921780600213,None, ,793.3894430682994,None,793.3894430682994,None,down,1.624806631822139,793.3894430682994,None,795.0480666900985,None,4,6.151140492409468,795.0480666900985,None,,,,,,,,,,,,,,,,,,,,,,,,,,,505193,2022_Jun_15_1711,palt,2021.1.2,51.869944655712324,
7,csavarhúzó,hering,,,,,,,,,1,0,1,0,,,,,0,6,6,6,,,,,,,,,801.2316666282713,None,,,,,,,,,,,hering,802.2516099256463,None,4,8.47222742298618,802.2516099256463,None,802.2516099256463,None,802.2516099256463,None, csavarhúzó,810.7560290182009,None,810.7560290182009,None,down,3.4738539871759713,810.7560290182009,None,814.2644408135675,None,4,6.302234644535929,814.2644408135675,None,,,,,,,,,,,,,,,,,,,,,,,,,,,505193,2022_Jun_15_1711,palt,2021.1.2,51.869944655712324,
4,mocsár,ananász,,,,,,,,,1,0,1,0,,,,,0,7,7,3,,,,,,,,,820.6060041068122,None,,,,,,,,,,,mocsár,821.6253101513721,None,None,,821.6253101513721,None,821.6253101513721,None,821.6253101513721,None, ananász,836.6140405167826,None,836.6140405167826,None,down,3.9674273473210633,836.6140405167826,None,840.6053320216015,None,4,19.716075246222317,840.6053320216015,None,,,,,,,,,,,,,,,,,,,,,,,,,,,505193,2022_Jun_15_1711,palt,2021.1.2,51.869944655712324,
3,fogó,limonádé,,,,,,,,,1,0,1,0,,,,,0,8,8,2,,,,,,,,,860.3432856476866,None,,,,,,,,,,,limonádé,861.3591861706227,None,4,10.582073704805225,861.3591861706227,None,861.3591861706227,None,861.3591861706227,None, ,871.9698264524341,None,871.9698264524341,None,down,1.3153905342333019,871.9698264524341,None,873.3259065998718,None,4,7.673263012897223,873.3259065998718,None,,,,,,,,,,,,,,,,,,,,,,,,,,,505193,2022_Jun_15_1711,palt,2021.1.2,51.869944655712324,
9,szilva,kecske,,,,,,,,,1,0,1,0,,,,,0,9,9,8,,,,,,,,,881.0265077133663,None,,,,,,,,,,,kecske,882.0549598396756,None,4,3.4780105906538665,882.0549598396756,None,882.0549598396756,None,882.0549598396756,None, szilva,885.576026182156,None,885.576026182156,None,down,2.8609007499180734,885.576026182156,None,888.4742530090734,None,4,14.939451682846993,888.4742530090734,None,,,,,,,,,,,,,,,,,,,,,,,,,,,505193,2022_Jun_15_1711,palt,2021.1.2,51.869944655712324,
,,,,,,,,,,,1,0,1,0,,,,,,,,,,,,,,,,,,,,,,,,,,,,,,,,,,,,,,,,,,,,,,,,,,,,,,,,,,,,,,,,,,,,,,,,,,,4,29.461878678761423,903.4765065629035,None,903.4765065629035,None,505193,2022_Jun_15_1711,palt,2021.1.2,51.869944655712324,
10,málna,dominó,,,,,,,,,2,0,2,0,0,0,0,9,,,,,,,,,,,,,937.0062366151251,None,937.9902953505516,None,937.9902953505516,None,,,,,,,,,,,,,,,,,,,,,,,,,,,,,,,,,,,,,,,932.97793408297,None,,,,,,,,,,,,,,,,,,,505193,2022_Jun_15_1711,palt,2021.1.2,51.869944655712324,
4,mocsár,ananász,,,,,,,,,2,0,2,0,0,1,1,3,,,,,,,,,,,,,943.9871137533337,None,944.9913247823715,None,944.9913247823715,None,,,,,,,,,,,,,,,,,,,,,,,,,,,,,,,,,,,,,,,,,,,,,,,,,,,,,,,,,,,505193,2022_Jun_15_1711,palt,2021.1.2,51.869944655712324,
6,menta,triatlon,,,,,,,,,2,0,2,0,0,2,2,5,,,,,,,,,,,,,950.9896836006083,None,951.9998606690206,None,951.9998606690206,None,,,,,,,,,,,,,,,,,,,,,,,,,,,,,,,,,,,,,,,,,,,,,,,,,,,,,,,,,,,505193,2022_Jun_15_1711,palt,2021.1.2,51.869944655712324,
5,karton,hentes,,,,,,,,,2,0,2,0,0,3,3,4,,,,,,,,,,,,,957.9888734286651,None,959.0078137298115,None,959.0078137298115,None,,,,,,,,,,,,,,,,,,,,,,,,,,,,,,,,,,,,,,,,,,,,,,,,,,,,,,,,,,,505193,2022_Jun_15_1711,palt,2021.1.2,51.869944655712324,
7,csavarhúzó,hering,,,,,,,,,2,0,2,0,0,4,4,6,,,,,,,,,,,,,964.9872487303801,None,965.9987939167768,None,965.9987939167768,None,,,,,,,,,,,,,,,,,,,,,,,,,,,,,,,,,,,,,,,,,,,,,,,,,,,,,,,,,,,505193,2022_Jun_15_1711,palt,2021.1.2,51.869944655712324,
2,kötény,tisztás,,,,,,,,,2,0,2,0,0,5,5,1,,,,,,,,,,,,,971.9867735123262,None,972.9892827132717,None,972.9892827132717,None,,,,,,,,,,,,,,,,,,,,,,,,,,,,,,,,,,,,,,,,,,,,,,,,,,,,,,,,,,,505193,2022_Jun_15_1711,palt,2021.1.2,51.869944655712324,
8,szalvéta,puska,,,,,,,,,2,0,2,0,0,6,6,7,,,,,,,,,,,,,978.9866646598093,None,979.9946743235923,None,979.9946743235923,None,,,,,,,,,,,,,,,,,,,,,,,,,,,,,,,,,,,,,,,,,,,,,,,,,,,,,,,,,,,505193,2022_Jun_15_1711,palt,2021.1.2,51.869944655712324,
3,fogó,limonádé,,,,,,,,,2,0,2,0,0,7,7,2,,,,,,,,,,,,,985.9893545559607,None,987.0014968747273,None,987.0014968747273,None,,,,,,,,,,,,,,,,,,,,,,,,,,,,,,,,,,,,,,,,,,,,,,,,,,,,,,,,,,,505193,2022_Jun_15_1711,palt,2021.1.2,51.869944655712324,
1,bagoly,kirakó,,,,,,,,,2,0,2,0,0,8,8,0,,,,,,,,,,,,,992.9826987036504,None,994.0016648182645,None,994.0016648182645,None,,,,,,,,,,,,,,,,,,,,,,,,,,,,,,,,,,,,,,,,,,,,,,,,,,,,,,,,,,,505193,2022_Jun_15_1711,palt,2021.1.2,51.869944655712324,
9,szilva,kecske,,,,,,,,,2,0,2,0,0,9,9,8,,,,,,,,,,,,,999.9853885998018,None,1000.9983009709977,None,1000.9983009709977,None,,,,,,,,,,,,,,,,,,,,,,,,,,,,,,,,,,,,,,,,,,,,,,,,,,,,,,,,,,,505193,2022_Jun_15_1711,palt,2021.1.2,51.869944655712324,
1,bagoly,kirakó,,,,,,,,,2,0,2,0,,,,,0,0,0,0,,,,,,,,,1027.0931247021072,None,,,,,,,,,,,bagoly,1028.0851299664937,None,4,3.7970722462050617,1028.0851299664937,None,1028.0851299664937,None,1028.0851299664937,None, kirakó,1031.9252330842428,None,1031.9252330842428,None,down,3.0699687069281936,1031.9252330842428,None,1035.0366480830126,None,4,1.4235968780703843,1035.0366480830126,None,,,,,,,1023.0670617283322,None,1006.9877335894853,None,u,1.2717833677306771,1006.9877335894853,None,1008.2923548985273,None,4,14.741058093961328,1008.2923548985273,None,,,,,,,505193,2022_Jun_15_1711,palt,2021.1.2,51.869944655712324,
5,karton,hentes,,,,,,,,,2,0,2,0,,,,,0,1,1,4,,,,,,,,,1036.5027561406605,None,,,,,,,,,,,karton,1037.5197709999047,None,None,,1037.5197709999047,None,1037.5197709999047,None,1037.5197709999047,None, ,1052.5119992564432,None,1052.5119992564432,None,down,2.1790912761352956,1052.5119992564432,None,1054.7287447215058,None,4,1.16237000701949,1054.7287447215058,None,,,,,,,,,,,,,,,,,,,,,,,,,,,505193,2022_Jun_15_1711,palt,2021.1.2,51.869944655712324,
9,szilva,kecske,,,,,,,,,2,0,2,0,,,,,0,2,2,8,,,,,,,,,1055.9309702226892,None,,,,,,,,,,,kecske,1056.952633697074,None,4,3.555630370043218,1056.952633697074,None,1056.952633697074,None,1056.952633697074,None, szilvA,1060.5426850318909,None,1060.5426850318909,None,down,3.7805105233564973,1060.5426850318909,None,1064.3501971471123,None,4,4.098659686278552,1064.3501971471123,None,,,,,,,,,,,,,,,,,,,,,,,,,,,505193,2022_Jun_15_1711,palt,2021.1.2,51.869944655712324,
10,málna,dominó,,,,,,,,,2,0,2,0,,,,,0,3,3,9,,,,,,,,,1068.4937512557954,None,,,,,,,,,,,dominó,1069.5232365461998,None,4,4.7638679393567145,1069.5232365461998,None,1069.5232365461998,None,1069.5232365461998,None, menta,1074.3135537295602,None,1074.3135537295602,None,down,2.777287251316011,1074.3135537295602,None,1077.122400373686,None,4,4.414358738809824,1077.122400373686,None,,,,,,,,,,,,,,,,,,,,,,,,,,,505193,2022_Jun_15_1711,palt,2021.1.2,51.869944655712324,
7,csavarhúzó,hering,,,,,,,,,2,0,2,0,,,,,0,4,4,6,,,,,,,,,1081.561520834919,None,,,,,,,,,,,hering,1082.5857827696018,None,4,3.6420233342796564,1082.5857827696018,None,1082.5857827696018,None,1082.5857827696018,None, csavarhúzó,1086.2549949213862,None,1086.2549949213862,None,down,3.7475438257679343,1086.2549949213862,None,1090.0509441229515,None,4,1.0317494180053473,1090.0509441229515,None,,,,,,,,,,,,,,,,,,,,,,,,,,,505193,2022_Jun_15_1711,palt,2021.1.2,51.869944655712324,
4,mocsár,ananász,,,,,,,,,2,0,2,0,,,,,0,5,5,3,,,,,,,,,1091.1068609296344,None,,,,,,,,,,,mocsár,1092.1240350245498,None,4,2.001501539722085,1092.1240350245498,None,1092.1240350245498,None,1092.1240350245498,None, ananász,1094.1525341128,None,1094.1525341128,None,down,2.8099575601518154,1094.1525341128,None,1096.986576023046,None,4,0.7762923408299685,1096.986576023046,None,,,,,,,,,,,,,,,,,,,,,,,,,,,505193,2022_Jun_15_1711,palt,2021.1.2,51.869944655712324,
3,fogó,limonádé,,,,,,,,,2,0,2,0,,,,,0,6,6,2,,,,,,,,,1097.7903834278695,None,,,,,,,,,,,limonádé,1098.7984232590534,None,4,1.519134369213134,1098.7984232590534,None,1098.7984232590534,None,1098.7984232590534,None, fogó,1100.3494681478478,None,1100.3494681478478,None,down,2.1814993997104466,1100.3494681478478,None,1102.5580210778862,None,4,0.7794879339635372,1102.5580210778862,None,,,,,,,,,,,,,,,,,,,,,,,,,,,505193,2022_Jun_15_1711,palt,2021.1.2,51.869944655712324,
8,szalvéta,puska,,,,,,,,,2,0,2,0,,,,,0,7,7,7,,,,,,,,,1103.3564172787592,None,,,,,,,,,,,puska,1104.373313955497,None,4,7.210339040495455,1104.373313955497,None,1104.373313955497,None,1104.373313955497,None, szalvéta,1111.6203651465476,None,1111.6203651465476,None,down,3.3101450973190367,1111.6203651465476,None,1114.9585879184306,None,4,6.233655204065144,1114.9585879184306,None,,,,,,,,,,,,,,,,,,,,,,,,,,,505193,2022_Jun_15_1711,palt,2021.1.2,51.869944655712324,
2,kötény,tisztás,,,,,,,,,2,0,2,0,,,,,0,8,8,1,,,,,,,,,1121.2322827326134,None,,,,,,,,,,,kötény,1122.2502156831324,None,4,4.402923959773034,1122.2502156831324,None,1122.2502156831324,None,1122.2502156831324,None, triatlon,1126.6967384116724,None,1126.6967384116724,None,down,2.9053709590807557,1126.6967384116724,None,1129.6565401889384,None,4,0.7126096994616091,1129.6565401889384,None,,,,,,,,,,,,,,,,,,,,,,,,,,,505193,2022_Jun_15_1711,palt,2021.1.2,51.869944655712324,
6,menta,triatlon,,,,,,,,,2,0,2,0,,,,,0,9,9,5,,,,,,,,,1130.4128270312212,None,,,,,,,,,,,menta,1131.424606716726,None,4,11.447436154820025,1131.424606716726,None,1131.424606716726,None,1131.424606716726,None, triatlon,1142.9052194994874,None,1142.9052194994874,None,down,2.4087074380367994,1142.9052194994874,None,1145.3636618661694,None,4,1.3344617690891027,1145.3636618661694,None,,,,,,,,,,,,,,,,,,,,,,,,,,,505193,2022_Jun_15_1711,palt,2021.1.2,51.869944655712324,
,,,,,,,,,,,2,0,2,0,,,,,,,,,,,,,,,,,,,,,,,,,,,,,,,,,,,,,,,,,,,,,,,,,,,,,,,,,,,,,,,,,,,,,,,,,,,4,17.05209733499214,1146.7476816014387,None,1146.7476816014387,None,505193,2022_Jun_15_1711,palt,2021.1.2,51.869944655712324,
6,menta,triatlon,,,,,,,,,3,0,3,0,0,0,0,5,,,,,,,,,,,,,1167.8697299156338,None,1168.8711599241942,None,1168.8711599241942,None,,,,,,,,,,,,,,,,,,,,,,,,,,,,,,,,,,,,,,,1163.8396695745178,None,,,,,,,,,,,,,,,,,,,505193,2022_Jun_15_1711,palt,2021.1.2,51.869944655712324,
7,csavarhúzó,hering,,,,,,,,,3,0,3,0,0,1,1,6,,,,,,,,,,,,,1174.851190191228,None,1175.8592405966483,None,1175.8592405966483,None,,,,,,,,,,,,,,,,,,,,,,,,,,,,,,,,,,,,,,,,,,,,,,,,,,,,,,,,,,,505193,2022_Jun_15_1711,palt,2021.1.2,51.869944655712324,
9,szilva,kecske,,,,,,,,,3,0,3,0,0,2,2,8,,,,,,,,,,,,,1181.8543689893559,None,1182.872277370654,None,1182.872277370654,None,,,,,,,,,,,,,,,,,,,,,,,,,,,,,,,,,,,,,,,,,,,,,,,,,,,,,,,,,,,505193,2022_Jun_15_1711,palt,2021.1.2,51.869944655712324,
10,málna,dominó,,,,,,,,,3,0,3,0,0,3,3,9,,,,,,,,,,,,,1188.8534652045928,None,1189.8634357643314,None,1189.8634357643314,None,,,,,,,,,,,,,,,,,,,,,,,,,,,,,,,,,,,,,,,,,,,,,,,,,,,,,,,,,,,505193,2022_Jun_15_1711,palt,2021.1.2,51.869944655712324,
5,karton,hentes,,,,,,,,,3,0,3,0,0,4,4,4,,,,,,,,,,,,,1195.8524028058164,None,1196.8703848957084,None,1196.8703848957084,None,,,,,,,,,,,,,,,,,,,,,,,,,,,,,,,,,,,,,,,,,,,,,,,,,,,,,,,,,,,505193,2022_Jun_15_1711,palt,2021.1.2,51.869944655712324,
1,bagoly,kirakó,,,,,,,,,3,0,3,0,0,5,5,0,,,,,,,,,,,,,1202.852367662359,None,1203.869685752783,None,1203.869685752783,None,,,,,,,,,,,,,,,,,,,,,,,,,,,,,,,,,,,,,,,,,,,,,,,,,,,,,,,,,,,505193,2022_Jun_15_1711,palt,2021.1.2,51.869944655712324,
4,mocsár,ananász,,,,,,,,,3,0,3,0,0,6,6,3,,,,,,,,,,,,,1209.85270012822,None,1210.8598249782808,None,1210.8598249782808,None,,,,,,,,,,,,,,,,,,,,,,,,,,,,,,,,,,,,,,,,,,,,,,,,,,,,,,,,,,,505193,2022_Jun_15_1711,palt,2021.1.2,51.869944655712324,
2,kötény,tisztás,,,,,,,,,3,0,3,0,0,7,7,1,,,,,,,,,,,,,1216.85270292731,None,1217.8558500027284,None,1217.8558500027284,None,,,,,,,,,,,,,,,,,,,,,,,,,,,,,,,,,,,,,,,,,,,,,,,,,,,,,,,,,,,505193,2022_Jun_15_1711,palt,2021.1.2,51.869944655712324,
8,szalvéta,puska,,,,,,,,,3,0,3,0,0,8,8,7,,,,,,,,,,,,,1223.8525511561893,None,1224.872089211829,None,1224.872089211829,None,,,,,,,,,,,,,,,,,,,,,,,,,,,,,,,,,,,,,,,,,,,,,,,,,,,,,,,,,,,505193,2022_Jun_15_1711,palt,2021.1.2,51.869944655712324,
3,fogó,limonádé,,,,,,,,,3,0,3,0,0,9,9,2,,,,,,,,,,,,,1230.8526229984127,None,1231.8590947347693,None,1231.8590947347693,None,,,,,,,,,,,,,,,,,,,,,,,,,,,,,,,,,,,,,,,,,,,,,,,,,,,,,,,,,,,505193,2022_Jun_15_1711,palt,2021.1.2,51.869944655712324,
2,kötény,tisztás,,,,,,,,,3,0,3,0,,,,,0,0,0,1,,,,,,,,,1247.1508232657798,None,,,,,,,,,,,kötény,1248.1392572419718,None,4,3.6656847149133682,1248.1392572419718,None,1248.1392572419718,None,1248.1392572419718,None, tisztás,1251.8512645219453,None,1251.8512645219453,None,down,3.0935274553485215,1251.8512645219453,None,1254.9916171287186,None,4,1.0491605000570416,1254.9916171287186,None,,,,,,,1243.1312519321218,None,1237.8445315402932,None,u,1.7244531414471567,1237.8445315402932,None,1239.596501300577,None,4,3.489388144109398,1239.596501300577,None,,,,,,,505193,2022_Jun_15_1711,palt,2021.1.2,51.869944655712324,
1,bagoly,kirakó,,,,,,,,,3,0,3,0,,,,,0,1,1,0,,,,,,,,,1256.0684146066196,None,,,,,,,,,,,bagoly,1257.0823977738619,None,4,3.9585387790575624,1257.0823977738619,None,1257.0823977738619,None,1257.0823977738619,None, ,1261.0673092892393,None,1261.0673092892393,None,down,24.373029695358127,1261.0673092892393,None,1285.4879099302925,None,4,1.161407130304724,1285.4879099302925,None,,,,,,,,,,,,,,,,,,,,,,,,,,,505193,2022_Jun_15_1711,palt,2021.1.2,51.869944655712324,
10,málna,dominó,,,,,,,,,3,0,3,0,,,,,0,2,2,9,,,,,,,,,1286.6710697943345,None,,,,,,,,,,,dominó,1287.6856510271318,None,4,3.535960136447102,1287.6856510271318,None,1287.6856510271318,None,1287.6856510271318,None, málna,1291.2506308769807,None,1291.2506308769807,None,down,2.3657757779583335,1291.2506308769807,None,1293.6564692794345,None,4,0.6698550027795136,1293.6564692794345,None,,,,,,,,,,,,,,,,,,,,,,,,,,,505193,2022_Jun_15_1711,palt,2021.1.2,51.869944655712324,
4,mocsár,ananász,,,,,,,,,3,0,3,0,,,,,0,3,3,3,,,,,,,,,1294.3658214961179,None,,,,,,,,,,,mocsár,1295.3765605534427,None,4,1.5087999310344458,1295.3765605534427,None,1295.3765605534427,None,1295.3765605534427,None, ananász,1296.9148100093007,None,1296.9148100093007,None,down,3.4374217432923615,1296.9148100093007,None,1300.3762075607665,None,4,0.4799484726972878,1300.3762075607665,None,,,,,,,,,,,,,,,,,,,,,,,,,,,505193,2022_Jun_15_1711,palt,2021.1.2,51.869944655712324,
8,szalvéta,puska,,,,,,,,,3,0,3,0,,,,,0,4,4,7,,,,,,,,,1300.8940282384865,None,,,,,,,,,,,puska,1301.916824399028,None,4,1.9686023304238915,1301.916824399028,None,1301.916824399028,None,1301.916824399028,None, szalvéta,1303.9093991168775,None,1303.9093991168775,None,down,2.7788597005419433,1303.9093991168775,None,1306.7319431132637,None,4,0.9152391985990107,1306.7319431132637,None,,,,,,,,,,,,,,,,,,,,,,,,,,,505193,2022_Jun_15_1711,palt,2021.1.2,51.869944655712324,
9,szilva,kecske,,,,,,,,,3,0,3,0,,,,,0,5,5,8,,,,,,,,,1307.6781206247397,None,,,,,,,,,,,kecske,1308.6861218912527,None,4,1.6190526988357306,1308.6861218912527,None,1308.6861218912527,None,1308.6861218912527,None, szilva,1310.3343774862587,None,1310.3343774862587,None,down,2.657826200593263,1310.3343774862587,None,1313.015390472021,None,4,0.8519916548393667,1313.015390472021,None,,,,,,,,,,,,,,,,,,,,,,,,,,,505193,2022_Jun_15_1711,palt,2021.1.2,51.869944655712324,
5,karton,hentes,,,,,,,,,3,0,3,0,,,,,0,6,6,4,,,,,,,,,1313.8937834762037,None,,,,,,,,,,,karton,1314.915244796779,None,None,,1314.915244796779,None,1314.915244796779,None,1314.915244796779,None, ,1329.905210480094,None,1329.905210480094,None,down,1.8070340980775654,1329.905210480094,None,1331.7424367866479,None,4,0.179499005433172,1331.7424367866479,None,,,,,,,,,,,,,,,,,,,,,,,,,,,505193,2022_Jun_15_1711,palt,2021.1.2,51.869944655712324,
7,csavarhúzó,hering,,,,,,,,,3,0,3,0,,,,,0,7,7,6,,,,,,,,,1331.9584140656516,None,,,,,,,,,,,hering,1332.9831157638691,None,4,2.0680404654704034,1332.9831157638691,None,1332.9831157638691,None,1332.9831157638691,None, csavarhúzó,1335.085098554846,None,1335.085098554846,None,down,3.4751564832404256,1335.085098554846,None,1338.6005362998694,None,4,1.4322935556992888,1338.6005362998694,None,,,,,,,,,,,,,,,,,,,,,,,,,,,505193,2022_Jun_15_1711,palt,2021.1.2,51.869944655712324,
3,fogó,limonádé,,,,,,,,,3,0,3,0,,,,,0,8,8,2,,,,,,,,,1340.0619043060578,None,,,,,,,,,,,limonádé,1341.082247868646,None,4,1.0295487358234823,1341.082247868646,None,1341.082247868646,None,1341.082247868646,None, fogó,1342.157911105547,None,1342.157911105547,None,down,2.3542427206411958,1342.157911105547,None,1344.546144358348,None,4,1.0235674572177231,1344.546144358348,None,,,,,,,,,,,,,,,,,,,,,,,,,,,505193,2022_Jun_15_1711,palt,2021.1.2,51.869944655712324,
6,menta,triatlon,,,,,,,,,3,0,3,0,,,,,0,9,9,5,,,,,,,,,1345.5944663845003,None,,,,,,,,,,,menta,1346.6146992286667,None,4,1.7769286604598165,1346.6146992286667,None,1346.6146992286667,None,1346.6146992286667,None, triatlon,1348.4337198315188,None,1348.4337198315188,None,down,2.637881037313491,1348.4337198315188,None,1351.0975316651165,None,4,0.9072211375460029,1351.0975316651165,None,,,,,,,,,,,,,,,,,,,,,,,,,,,505193,2022_Jun_15_1711,palt,2021.1.2,51.869944655712324,
