itemno,wordA,wordB,enc_gyak.thisRepN,enc_gyak.thisTrialN,enc_gyak.thisN,enc_gyak.thisIndex,rec_gyak.thisRepN,rec_gyak.thisTrialN,rec_gyak.thisN,rec_gyak.thisIndex,repeat_task.thisRepN,repeat_task.thisTrialN,repeat_task.thisN,repeat_task.thisIndex,enc_loop.thisRepN,enc_loop.thisTrialN,enc_loop.thisN,enc_loop.thisIndex,test_loop.thisRepN,test_loop.thisTrialN,test_loop.thisN,test_loop.thisIndex,int.started,int.stopped,int_key.keys,int_key.rt,int_key.started,int_key.stopped,prepare_gyak_text.started,prepare_gyak_text.stopped,fix.started,fix.stopped,word1.started,word1.stopped,word2.started,word2.stopped,gykrec_inst.started,gykrec_inst.stopped,gyakrec_inst.keys,gyakrec_inst.rt,gyakrec_inst.started,gyakrec_inst.stopped,cueword,cueword1.started,cueword1.stopped,cue_resp.keys,cue_resp.rt,cue_resp.started,cue_resp.stopped,cue_cont_text.started,cue_cont_text.stopped,cue_space.started,cue_space.stopped,test_ansbox.text,test_ansbox.started,test_ansbox.stopped,ans_text.started,ans_text.stopped,ans_continue.keys,ans_continue.rt,ans_continue.started,ans_continue.stopped,feedback_text.started,feedback_text.stopped,feedback_cont.keys,feedback_cont.rt,feedback_cont.started,feedback_cont.stopped,main_prep.started,main_prep.stopped,main_prep_resp.keys,main_prep_resp.rt,main_prep_resp.started,main_prep_resp.stopped,preparation.started,preparation.stopped,break_text.started,break_text.stopped,key_resp.keys,key_resp.rt,key_resp.started,key_resp.stopped,test_instruction.started,test_instruction.stopped,test_i_key.keys,test_i_key.rt,test_i_key.started,test_i_key.stopped,rep_routine.keys,rep_routine.rt,rep_routine.started,rep_routine.stopped,encrep_textbox.started,encrep_textbox.stopped,end_text.started,end_text.stopped,Résztvevő kódja,date,expName,psychopyVersion,frameRate,
,,,,,,,,,,,,,,,,,,,,,,,37.485823400027584,None,4,53.51468619998195,37.485823400027584,None,,,,,,,,,,,,,,,,,,,,,,,,,,,,,,,,,,,,,,,,,,,,,,,,,,,,,,,,,,,,,,,,,,,,,568568,2022_Apr_28_1204,palt,2021.1.2,118.97411005764394,
1,sapka,beton,0,0,0,0,,,,,,,,,,,,,,,,,,,,,,,91.01334630002384,None,94.02726040000562,None,95.02243760001147,None,95.02243760001147,None,,,,,,,,,,,,,,,,,,,,,,,,,,,,,,,,,,,,,,,,,,,,,,,,,,,,,,,,,,,,,568568,2022_Apr_28_1204,palt,2021.1.2,118.97411005764394,
3,majoránna,szikla,0,1,1,2,,,,,,,,,,,,,,,,,,,,,,,,,101.01810939999996,None,102.0216916000063,None,102.0216916000063,None,,,,,,,,,,,,,,,,,,,,,,,,,,,,,,,,,,,,,,,,,,,,,,,,,,,,,,,,,,,,,568568,2022_Apr_28_1204,palt,2021.1.2,118.97411005764394,
2,lepke,szintetizátor,0,2,2,1,,,,,,,,,,,,,,,,,,,,,,,,,108.01726130000316,None,109.01835160001065,None,109.01835160001065,None,,,,,,,,,,,,,,,,,,,,,,,,,,,,,,,,,,,,,,,,,,,,,,,,,,,,,,,,,,,,,568568,2022_Apr_28_1204,palt,2021.1.2,118.97411005764394,
4,kard,harcsa,0,3,3,3,,,,,,,,,,,,,,,,,,,,,,,,,115.0175344000163,None,116.02152560002287,None,116.02152560002287,None,,,,,,,,,,,,,,,,,,,,,,,,,,,,,,,,,,,,,,,,,,,,,,,,,,,,,,,,,,,,,568568,2022_Apr_28_1204,palt,2021.1.2,118.97411005764394,
,,,,,,,,,,,,,,,,,,,,,,,,,,,,,,,,,,,,,122.026623200014,None,4,17.774047200015048,122.026623200014,None,,,,,,,,,,,,,,,,,,,,,,,,,,,,,,,,,,,,,,,,,,,,,,,,,,,,,,,568568,2022_Apr_28_1204,palt,2021.1.2,118.97411005764394,
4,kard,harcsa,,,,,0,0,0,3,,,,,,,,,,,,,,,,,,,,,139.8170562000014,None,,,,,,,,,,,kard,140.82010950002586,None,4,1.7964592999778688,140.82010950002586,None,140.82010950002586,None,140.82010950002586,None,harcsa,142.63720140000805,None,142.63720140000805,None,down,2.0840131000149995,142.63720140000805,None,144.7499630000093,None,4,1.5944599999929778,144.7499630000093,None,,,,,,,,,,,,,,,,,,,,,,,,,,,,,568568,2022_Apr_28_1204,palt,2021.1.2,118.97411005764394,
2,lepke,szintetizátor,,,,,0,1,1,1,,,,,,,,,,,,,,,,,,,,,146.35468420002144,None,,,,,,,,,,,szintetizátor,147.36361650002073,None,4,4.844719999993686,147.36361650002073,None,147.36361650002073,None,147.36361650002073,None,lepke,152.22968590000528,None,152.22968590000528,None,down,1.434957100020256,152.22968590000528,None,153.68589550000615,None,4,1.9466174999834038,153.68589550000615,None,,,,,,,,,,,,,,,,,,,,,,,,,,,,,568568,2022_Apr_28_1204,palt,2021.1.2,118.97411005764394,
3,majoránna,szikla,,,,,0,2,2,2,,,,,,,,,,,,,,,,,,,,,155.65343310000026,None,,,,,,,,,,,majoránna,156.66261690002284,None,4,7.441916699986905,156.66261690002284,None,156.66261690002284,None,156.66261690002284,None,,164.12457060001907,None,164.12457060001907,None,down,0.8998041999875568,164.12457060001907,None,165.04084660002263,None,4,0.6320637000026181,165.04084660002263,None,,,,,,,,,,,,,,,,,,,,,,,,,,,,,568568,2022_Apr_28_1204,palt,2021.1.2,118.97411005764394,
1,sapka,beton,,,,,0,3,3,0,,,,,,,,,,,,,,,,,,,,,165.68723940002383,None,,,,,,,,,,,sapka,166.693786000018,None,4,2.3546987999870908,166.693786000018,None,166.693786000018,None,166.693786000018,None, beton,169.07211780000944,None,169.07211780000944,None,down,2.8885213999892585,169.07211780000944,None,171.9896680000238,None,4,1.0829652000102215,171.9896680000238,None,,,,,,,,,,,,,,,,,,,,,,,,,,,,,568568,2022_Apr_28_1204,palt,2021.1.2,118.97411005764394,
,,,,,,,,,,,,,,,,,,,,,,,,,,,,,,,,,,,,,,,,,,,,,,,,,,,,,,,,,,,,,,,,,,,,,173.08631460001925,None,4,48.54624639998656,173.08631460001925,None,,,,,,,,,,,,,,,,,,,,,,,568568,2022_Apr_28_1204,palt,2021.1.2,118.97411005764394,
4,mocsár,ananász,,,,,,,,,0,0,0,0,0,0,0,3,,,,,,,,,,,,,225.6533471000148,None,226.6502376999997,None,226.6502376999997,None,,,,,,,,,,,,,,,,,,,,,,,,,,,,,,,,,,,,,,,221.64956850002636,None,,,,,,,,,,,,,,,,,,,,,568568,2022_Apr_28_1204,palt,2021.1.2,118.97411005764394,
6,menta,triatlon,,,,,,,,,0,0,0,0,0,1,1,5,,,,,,,,,,,,,232.65757720000693,None,233.6496450000268,None,233.6496450000268,None,,,,,,,,,,,,,,,,,,,,,,,,,,,,,,,,,,,,,,,,,,,,,,,,,,,,,,,,,,,,,568568,2022_Apr_28_1204,palt,2021.1.2,118.97411005764394,
3,fogó,limonádé,,,,,,,,,0,0,0,0,0,2,2,2,,,,,,,,,,,,,239.6571760000079,None,240.6505474000005,None,240.6505474000005,None,,,,,,,,,,,,,,,,,,,,,,,,,,,,,,,,,,,,,,,,,,,,,,,,,,,,,,,,,,,,,568568,2022_Apr_28_1204,palt,2021.1.2,118.97411005764394,
8,szalvéta,puska,,,,,,,,,0,0,0,0,0,3,3,7,,,,,,,,,,,,,246.65628410002682,None,247.65747750000446,None,247.65747750000446,None,,,,,,,,,,,,,,,,,,,,,,,,,,,,,,,,,,,,,,,,,,,,,,,,,,,,,,,,,,,,,568568,2022_Apr_28_1204,palt,2021.1.2,118.97411005764394,
10,málna,dominó,,,,,,,,,0,0,0,0,0,4,4,9,,,,,,,,,,,,,253.64747020002687,None,254.64883530000225,None,254.64883530000225,None,,,,,,,,,,,,,,,,,,,,,,,,,,,,,,,,,,,,,,,,,,,,,,,,,,,,,,,,,,,,,568568,2022_Apr_28_1204,palt,2021.1.2,118.97411005764394,
2,kötény,tisztás,,,,,,,,,0,0,0,0,0,5,5,1,,,,,,,,,,,,,260.64757220001775,None,261.6500339000195,None,261.6500339000195,None,,,,,,,,,,,,,,,,,,,,,,,,,,,,,,,,,,,,,,,,,,,,,,,,,,,,,,,,,,,,,568568,2022_Apr_28_1204,palt,2021.1.2,118.97411005764394,
7,csavarhúzó,hering,,,,,,,,,0,0,0,0,0,6,6,6,,,,,,,,,,,,,267.64717790001305,None,268.65196920000017,None,268.65196920000017,None,,,,,,,,,,,,,,,,,,,,,,,,,,,,,,,,,,,,,,,,,,,,,,,,,,,,,,,,,,,,,568568,2022_Apr_28_1204,palt,2021.1.2,118.97411005764394,
9,szilva,kecske,,,,,,,,,0,0,0,0,0,7,7,8,,,,,,,,,,,,,274.6566668000014,None,275.6491368999996,None,275.6491368999996,None,,,,,,,,,,,,,,,,,,,,,,,,,,,,,,,,,,,,,,,,,,,,,,,,,,,,,,,,,,,,,568568,2022_Apr_28_1204,palt,2021.1.2,118.97411005764394,
1,bagoly,kirakó,,,,,,,,,0,0,0,0,0,8,8,0,,,,,,,,,,,,,281.6565788000007,None,282.6588804000057,None,282.6588804000057,None,,,,,,,,,,,,,,,,,,,,,,,,,,,,,,,,,,,,,,,,,,,,,,,,,,,,,,,,,,,,,568568,2022_Apr_28_1204,palt,2021.1.2,118.97411005764394,
5,karton,hentes,,,,,,,,,0,0,0,0,0,9,9,4,,,,,,,,,,,,,288.6559344000125,None,289.64936780001153,None,289.64936780001153,None,,,,,,,,,,,,,,,,,,,,,,,,,,,,,,,,,,,,,,,,,,,,,,,,,,,,,,,,,,,,,568568,2022_Apr_28_1204,palt,2021.1.2,118.97411005764394,
4,mocsár,ananász,,,,,,,,,0,0,0,0,,,,,0,0,0,3,,,,,,,,,314.02679230002104,None,,,,,,,,,,,mocsár,315.0145761000167,None,4,9.409925400017528,315.0145761000167,None,315.0145761000167,None,315.0145761000167,None, ,324.4453464000253,None,324.4453464000253,None,down,1.5788848999945913,324.4453464000253,None,326.0472929000098,None,4,0.9139060000015888,326.0472929000098,None,,,,,,,310.01430410001194,None,295.6562599000172,None,u,5.5686513999826275,295.6562599000172,None,301.24700690002646,None,4,8.753142499976093,301.24700690002646,None,,,,,,,,,568568,2022_Apr_28_1204,palt,2021.1.2,118.97411005764394,
10,málna,dominó,,,,,,,,,0,0,0,0,,,,,0,1,1,9,,,,,,,,,326.9764570000116,None,,,,,,,,,,,dominó,327.9818596000259,None,4,8.554610299994238,327.9818596000259,None,327.9818596000259,None,327.9818596000259,None,,336.5592010000255,None,336.5592010000255,None,down,1.0573410999786574,336.5592010000255,None,337.6413745000027,None,4,2.9111718000203837,337.6413745000027,None,,,,,,,,,,,,,,,,,,,,,,,,,,,,,568568,2022_Apr_28_1204,palt,2021.1.2,118.97411005764394,
8,szalvéta,puska,,,,,,,,,0,0,0,0,,,,,0,2,2,7,,,,,,,,,340.572410200024,None,,,,,,,,,,,szalvéta,341.58295120002003,None,4,9.953516700014006,341.58295120002003,None,341.58295120002003,None,341.58295120002003,None,puska ,351.5594245000102,None,351.5594245000102,None,down,3.3687181000132114,351.5594245000102,None,354.95448470002157,None,4,12.733659999998054,354.95448470002157,None,,,,,,,,,,,,,,,,,,,,,,,,,,,,,568568,2022_Apr_28_1204,palt,2021.1.2,118.97411005764394,
1,bagoly,kirakó,,,,,,,,,0,0,0,0,,,,,0,3,3,0,,,,,,,,,367.6989636000071,None,,,,,,,,,,,bagoly,368.71579110002494,None,4,8.97248519997811,368.71579110002494,None,368.71579110002494,None,368.71579110002494,None, ,377.71021220000694,None,377.71021220000694,None,down,2.8580823999946006,377.71021220000694,None,380.59499300000607,None,4,0.8291713000216987,380.59499300000607,None,,,,,,,,,,,,,,,,,,,,,,,,,,,,,568568,2022_Apr_28_1204,palt,2021.1.2,118.97411005764394,
9,szilva,kecske,,,,,,,,,0,0,0,0,,,,,0,4,4,8,,,,,,,,,381.4395797000034,None,,,,,,,,,,,szilva,382.444721900014,None,4,6.739896800019778,382.444721900014,None,382.444721900014,None,382.444721900014,None, ,389.2005121000111,None,389.2005121000111,None,down,4.64806479998515,389.2005121000111,None,393.87169960001484,None,4,0.7923656000057235,393.87169960001484,None,,,,,,,,,,,,,,,,,,,,,,,,,,,,,568568,2022_Apr_28_1204,palt,2021.1.2,118.97411005764394,
5,karton,hentes,,,,,,,,,0,0,0,0,,,,,0,5,5,4,,,,,,,,,394.67484430002514,None,,,,,,,,,,,hentes,395.6787706000032,None,4,7.073394499981077,395.6787706000032,None,395.6787706000032,None,395.6787706000032,None, ,402.77452610002365,None,402.77452610002365,None,down,0.8496400000003632,402.77452610002365,None,403.6459470000118,None,4,0.4345000000030268,403.6459470000118,None,,,,,,,,,,,,,,,,,,,,,,,,,,,,,568568,2022_Apr_28_1204,palt,2021.1.2,118.97411005764394,
3,fogó,limonádé,,,,,,,,,0,0,0,0,,,,,0,6,6,2,,,,,,,,,404.0990120000206,None,,,,,,,,,,,fogó,405.10394390000147,None,4,4.768606700003147,405.10394390000147,None,405.10394390000147,None,405.10394390000147,None, ,409.8943351000198,None,409.8943351000198,None,down,0.817892999999458,409.8943351000198,None,410.73707650002325,None,4,0.3190961999935098,410.73707650002325,None,,,,,,,,,,,,,,,,,,,,,,,,,,,,,568568,2022_Apr_28_1204,palt,2021.1.2,118.97411005764394,
2,kötény,tisztás,,,,,,,,,0,0,0,0,,,,,0,7,7,1,,,,,,,,,411.0784031000221,None,,,,,,,,,,,tisztás,412.0790890000062,None,4,5.825173999997787,412.0790890000062,None,412.0790890000062,None,412.0790890000062,None, kecske,417.92509500001324,None,417.92509500001324,None,down,2.2350679999799468,417.92509500001324,None,420.1828391000163,None,4,4.193358599994099,420.1828391000163,None,,,,,,,,,,,,,,,,,,,,,,,,,,,,,568568,2022_Apr_28_1204,palt,2021.1.2,118.97411005764394,
6,menta,triatlon,,,,,,,,,0,0,0,0,,,,,0,8,8,5,,,,,,,,,424.3976024000149,None,,,,,,,,,,,triatlon,425.4063009000092,None,4,5.52183270000387,425.4063009000092,None,425.4063009000092,None,425.4063009000092,None, ,430.94470200000796,None,430.94470200000796,None,down,0.7915926999994554,430.94470200000796,None,431.75373980001314,None,4,0.4946963000111282,431.75373980001314,None,,,,,,,,,,,,,,,,,,,,,,,,,,,,,568568,2022_Apr_28_1204,palt,2021.1.2,118.97411005764394,
7,csavarhúzó,hering,,,,,,,,,0,0,0,0,,,,,0,9,9,6,,,,,,,,,432.2701783000084,None,,,,,,,,,,,hering,433.27336260001175,None,4,6.798658699990483,433.27336260001175,None,433.27336260001175,None,433.27336260001175,None, ,440.08971690002363,None,440.08971690002363,None,down,1.1986873999994714,440.08971690002363,None,441.3140389000182,None,4,0.494546400004765,441.3140389000182,None,,,,,,,,,,,,,,,,,,,,,,,,,,,,,568568,2022_Apr_28_1204,palt,2021.1.2,118.97411005764394,
,,,,,,,,,,,0,0,0,0,,,,,,,,,,,,,,,,,,,,,,,,,,,,,,,,,,,,,,,,,,,,,,,,,,,,,,,,,,,,,,,,,,,,,,,,,,,4,29.322171299980255,441.8459557000024,None,441.8459557000024,None,,,568568,2022_Apr_28_1204,palt,2021.1.2,118.97411005764394,
10,málna,dominó,,,,,,,,,1,0,1,0,0,0,0,9,,,,,,,,,,,,,475.1878857000265,None,476.18806440001936,None,476.18806440001936,None,,,,,,,,,,,,,,,,,,,,,,,,,,,,,,,,,,,,,,,471.1861231000221,None,,,,,,,,,,,,,,,,,,,,,568568,2022_Apr_28_1204,palt,2021.1.2,118.97411005764394,
1,bagoly,kirakó,,,,,,,,,1,0,1,0,0,1,1,0,,,,,,,,,,,,,482.1929464999994,None,483.19578639999963,None,483.19578639999963,None,,,,,,,,,,,,,,,,,,,,,,,,,,,,,,,,,,,,,,,,,,,,,,,,,,,,,,,,,,,,,568568,2022_Apr_28_1204,palt,2021.1.2,118.97411005764394,
5,karton,hentes,,,,,,,,,1,0,1,0,0,2,2,4,,,,,,,,,,,,,489.19365760000073,None,490.1858633000229,None,490.1858633000229,None,,,,,,,,,,,,,,,,,,,,,,,,,,,,,,,,,,,,,,,,,,,,,,,,,,,,,,,,,,,,,568568,2022_Apr_28_1204,palt,2021.1.2,118.97411005764394,
3,fogó,limonádé,,,,,,,,,1,0,1,0,0,3,3,2,,,,,,,,,,,,,496.18491830001585,None,497.1859890000196,None,497.1859890000196,None,,,,,,,,,,,,,,,,,,,,,,,,,,,,,,,,,,,,,,,,,,,,,,,,,,,,,,,,,,,,,568568,2022_Apr_28_1204,palt,2021.1.2,118.97411005764394,
6,menta,triatlon,,,,,,,,,1,0,1,0,0,4,4,5,,,,,,,,,,,,,503.184032500023,None,504.1883266000077,None,504.1883266000077,None,,,,,,,,,,,,,,,,,,,,,,,,,,,,,,,,,,,,,,,,,,,,,,,,,,,,,,,,,,,,,568568,2022_Apr_28_1204,palt,2021.1.2,118.97411005764394,
8,szalvéta,puska,,,,,,,,,1,0,1,0,0,5,5,7,,,,,,,,,,,,,510.1921532000124,None,511.1857851000095,None,511.1857851000095,None,,,,,,,,,,,,,,,,,,,,,,,,,,,,,,,,,,,,,,,,,,,,,,,,,,,,,,,,,,,,,568568,2022_Apr_28_1204,palt,2021.1.2,118.97411005764394,
4,mocsár,ananász,,,,,,,,,1,0,1,0,0,6,6,3,,,,,,,,,,,,,517.1921816000249,None,518.1862164000049,None,518.1862164000049,None,,,,,,,,,,,,,,,,,,,,,,,,,,,,,,,,,,,,,,,,,,,,,,,,,,,,,,,,,,,,,568568,2022_Apr_28_1204,palt,2021.1.2,118.97411005764394,
7,csavarhúzó,hering,,,,,,,,,1,0,1,0,0,7,7,6,,,,,,,,,,,,,524.1921011000231,None,525.1947760000185,None,525.1947760000185,None,,,,,,,,,,,,,,,,,,,,,,,,,,,,,,,,,,,,,,,,,,,,,,,,,,,,,,,,,,,,,568568,2022_Apr_28_1204,palt,2021.1.2,118.97411005764394,
2,kötény,tisztás,,,,,,,,,1,0,1,0,0,8,8,1,,,,,,,,,,,,,531.1917691999988,None,532.1919766000065,None,532.1919766000065,None,,,,,,,,,,,,,,,,,,,,,,,,,,,,,,,,,,,,,,,,,,,,,,,,,,,,,,,,,,,,,568568,2022_Apr_28_1204,palt,2021.1.2,118.97411005764394,
9,szilva,kecske,,,,,,,,,1,0,1,0,0,9,9,8,,,,,,,,,,,,,538.1914742000226,None,539.1859355000197,None,539.1859355000197,None,,,,,,,,,,,,,,,,,,,,,,,,,,,,,,,,,,,,,,,,,,,,,,,,,,,,,,,,,,,,,568568,2022_Apr_28_1204,palt,2021.1.2,118.97411005764394,
1,bagoly,kirakó,,,,,,,,,1,0,1,0,,,,,0,0,0,0,,,,,,,,,558.6301399000222,None,,,,,,,,,,,bagoly,559.6271477000264,None,4,10.476629499986302,559.6271477000264,None,559.6271477000264,None,559.6271477000264,None, ,570.1162009000254,None,570.1162009000254,None,down,1.7720740999793634,570.1162009000254,None,571.9112010000099,None,4,0.44885380001505837,571.9112010000099,None,,,,,,,554.6195870000229,None,545.1917423000268,None,u,5.328548899997259,545.1917423000268,None,550.544406800007,None,4,4.055591800017282,550.544406800007,None,,,,,,,,,568568,2022_Apr_28_1204,palt,2021.1.2,118.97411005764394,
4,mocsár,ananász,,,,,,,,,1,0,1,0,,,,,0,1,1,3,,,,,,,,,572.379849000019,None,,,,,,,,,,,mocsár,573.3867775000108,None,4,1.7172826000023633,573.3867775000108,None,573.3867775000108,None,573.3867775000108,None, ananász,575.1299804000009,None,575.1299804000009,None,down,3.230096399987815,575.1299804000009,None,578.3830877,None,4,0.8253163000044879,578.3830877,None,,,,,,,,,,,,,,,,,,,,,,,,,,,,,568568,2022_Apr_28_1204,palt,2021.1.2,118.97411005764394,
9,szilva,kecske,,,,,,,,,1,0,1,0,,,,,0,2,2,8,,,,,,,,,579.2288625000219,None,,,,,,,,,,,szilva,580.2365021000151,None,4,7.9477416000154335,580.2365021000151,None,580.2365021000151,None,580.2365021000151,None, ,588.204727400007,None,588.204727400007,None,down,0.8433402000227943,588.204727400007,None,589.0744286000263,None,4,0.4456365000223741,589.0744286000263,None,,,,,,,,,,,,,,,,,,,,,,,,,,,,,568568,2022_Apr_28_1204,palt,2021.1.2,118.97411005764394,
3,fogó,limonádé,,,,,,,,,1,0,1,0,,,,,0,3,3,2,,,,,,,,,589.5451680000115,None,,,,,,,,,,,fogó,590.5586195000215,None,None,,590.5586195000215,None,590.5586195000215,None,590.5586195000215,None, ,605.5579606000101,None,605.5579606000101,None,down,2.610098500008462,605.5579606000101,None,608.1832100000174,None,4,1.3845408000051975,608.1832100000174,None,,,,,,,,,,,,,,,,,,,,,,,,,,,,,568568,2022_Apr_28_1204,palt,2021.1.2,118.97411005764394,
8,szalvéta,puska,,,,,,,,,1,0,1,0,,,,,0,4,4,7,,,,,,,,,609.5777655000275,None,,,,,,,,,,,szalvéta,610.5832130000053,None,4,6.776596400013659,610.5832130000053,None,610.5832130000053,None,610.5832130000053,None,puska,617.3733854000166,None,617.3733854000166,None,down,2.4665001000103075,617.3733854000166,None,619.8573182000255,None,4,0.7430632000032347,619.8573182000255,None,,,,,,,,,,,,,,,,,,,,,,,,,,,,,568568,2022_Apr_28_1204,palt,2021.1.2,118.97411005764394,
7,csavarhúzó,hering,,,,,,,,,1,0,1,0,,,,,0,5,5,6,,,,,,,,,620.6154796000046,None,,,,,,,,,,,hering,621.6251456000027,None,4,10.343251600017538,621.6251456000027,None,621.6251456000027,None,621.6251456000027,None, ,631.9866156000062,None,631.9866156000062,None,down,7.253438700019615,631.9866156000062,None,639.256799499999,None,4,0.6472559999965597,639.256799499999,None,,,,,,,,,,,,,,,,,,,,,,,,,,,,,568568,2022_Apr_28_1204,palt,2021.1.2,118.97411005764394,
5,karton,hentes,,,,,,,,,1,0,1,0,,,,,0,6,6,4,,,,,,,,,639.9241088000126,None,,,,,,,,,,,hentes,640.9251409000135,None,4,8.283061100024497,640.9251409000135,None,640.9251409000135,None,640.9251409000135,None, ,649.2293723000039,None,649.2293723000039,None,down,1.3625913999858312,649.2293723000039,None,650.6064362000034,None,4,0.5455713999981526,650.6064362000034,None,,,,,,,,,,,,,,,,,,,,,,,,,,,,,568568,2022_Apr_28_1204,palt,2021.1.2,118.97411005764394,
2,kötény,tisztás,,,,,,,,,1,0,1,0,,,,,0,7,7,1,,,,,,,,,651.1768777000252,None,,,,,,,,,,,tisztás,652.1821991000033,None,4,8.097949299990432,652.1821991000033,None,652.1821991000033,None,652.1821991000033,None, ,660.2978921000031,None,660.2978921000031,None,down,0.8301101000106428,660.2978921000031,None,661.1522396000219,None,4,0.5838378999906126,661.1522396000219,None,,,,,,,,,,,,,,,,,,,,,,,,,,,,,568568,2022_Apr_28_1204,palt,2021.1.2,118.97411005764394,
6,menta,triatlon,,,,,,,,,1,0,1,0,,,,,0,8,8,5,,,,,,,,,661.7569354000152,None,,,,,,,,,,,triatlon,662.7655690000101,None,4,6.986228399997344,662.7655690000101,None,662.7655690000101,None,662.7655690000101,None, mocsár,669.7638472000253,None,669.7638472000253,None,down,1.9238321000011638,669.7638472000253,None,671.7106206000026,None,4,0.9052587000187486,671.7106206000026,None,,,,,,,,,,,,,,,,,,,,,,,,,,,,,568568,2022_Apr_28_1204,palt,2021.1.2,118.97411005764394,
10,málna,dominó,,,,,,,,,1,0,1,0,,,,,0,9,9,9,,,,,,,,,672.6312423000054,None,,,,,,,,,,,dominó,673.6407492000144,None,4,6.502951900009066,673.6407492000144,None,673.6407492000144,None,673.6407492000144,None, málna,680.1604792000144,None,680.1604792000144,None,down,3.4075001000019256,680.1604792000144,None,683.5896933000186,None,4,6.690326600015396,683.5896933000186,None,,,,,,,,,,,,,,,,,,,,,,,,,,,,,568568,2022_Apr_28_1204,palt,2021.1.2,118.97411005764394,
,,,,,,,,,,,1,0,1,0,,,,,,,,,,,,,,,,,,,,,,,,,,,,,,,,,,,,,,,,,,,,,,,,,,,,,,,,,,,,,,,,,,,,,,,,,,,4,27.0481306000147,690.3041923000128,None,690.3041923000128,None,,,568568,2022_Apr_28_1204,palt,2021.1.2,118.97411005764394,
1,bagoly,kirakó,,,,,,,,,2,0,2,0,0,0,0,0,,,,,,,,,,,,,721.3737737000047,None,722.3730403000081,None,722.3730403000081,None,,,,,,,,,,,,,,,,,,,,,,,,,,,,,,,,,,,,,,,717.3664769000025,None,,,,,,,,,,,,,,,,,,,,,568568,2022_Apr_28_1204,palt,2021.1.2,118.97411005764394,
8,szalvéta,puska,,,,,,,,,2,0,2,0,0,1,1,7,,,,,,,,,,,,,728.3807429000153,None,729.3734867000021,None,729.3734867000021,None,,,,,,,,,,,,,,,,,,,,,,,,,,,,,,,,,,,,,,,,,,,,,,,,,,,,,,,,,,,,,568568,2022_Apr_28_1204,palt,2021.1.2,118.97411005764394,
6,menta,triatlon,,,,,,,,,2,0,2,0,0,2,2,5,,,,,,,,,,,,,735.3809805000201,None,736.3726751000213,None,736.3726751000213,None,,,,,,,,,,,,,,,,,,,,,,,,,,,,,,,,,,,,,,,,,,,,,,,,,,,,,,,,,,,,,568568,2022_Apr_28_1204,palt,2021.1.2,118.97411005764394,
3,fogó,limonádé,,,,,,,,,2,0,2,0,0,3,3,2,,,,,,,,,,,,,742.3713306999998,None,743.3751228000037,None,743.3751228000037,None,,,,,,,,,,,,,,,,,,,,,,,,,,,,,,,,,,,,,,,,,,,,,,,,,,,,,,,,,,,,,568568,2022_Apr_28_1204,palt,2021.1.2,118.97411005764394,
9,szilva,kecske,,,,,,,,,2,0,2,0,0,4,4,8,,,,,,,,,,,,,749.3803628000023,None,750.3727304000058,None,750.3727304000058,None,,,,,,,,,,,,,,,,,,,,,,,,,,,,,,,,,,,,,,,,,,,,,,,,,,,,,,,,,,,,,568568,2022_Apr_28_1204,palt,2021.1.2,118.97411005764394,
5,karton,hentes,,,,,,,,,2,0,2,0,0,5,5,4,,,,,,,,,,,,,756.3808733000187,None,757.3819409999996,None,757.3819409999996,None,,,,,,,,,,,,,,,,,,,,,,,,,,,,,,,,,,,,,,,,,,,,,,,,,,,,,,,,,,,,,568568,2022_Apr_28_1204,palt,2021.1.2,118.97411005764394,
4,mocsár,ananász,,,,,,,,,2,0,2,0,0,6,6,3,,,,,,,,,,,,,763.3788092000177,None,764.3724710000097,None,764.3724710000097,None,,,,,,,,,,,,,,,,,,,,,,,,,,,,,,,,,,,,,,,,,,,,,,,,,,,,,,,,,,,,,568568,2022_Apr_28_1204,palt,2021.1.2,118.97411005764394,
10,málna,dominó,,,,,,,,,2,0,2,0,0,7,7,9,,,,,,,,,,,,,770.3783380000095,None,771.3703001000104,None,771.3703001000104,None,,,,,,,,,,,,,,,,,,,,,,,,,,,,,,,,,,,,,,,,,,,,,,,,,,,,,,,,,,,,,568568,2022_Apr_28_1204,palt,2021.1.2,118.97411005764394,
2,kötény,tisztás,,,,,,,,,2,0,2,0,0,8,8,1,,,,,,,,,,,,,777.3784450000094,None,778.3721427000128,None,778.3721427000128,None,,,,,,,,,,,,,,,,,,,,,,,,,,,,,,,,,,,,,,,,,,,,,,,,,,,,,,,,,,,,,568568,2022_Apr_28_1204,palt,2021.1.2,118.97411005764394,
7,csavarhúzó,hering,,,,,,,,,2,0,2,0,0,9,9,6,,,,,,,,,,,,,784.3793524000212,None,785.3827622000244,None,785.3827622000244,None,,,,,,,,,,,,,,,,,,,,,,,,,,,,,,,,,,,,,,,,,,,,,,,,,,,,,,,,,,,,,568568,2022_Apr_28_1204,palt,2021.1.2,118.97411005764394,
9,szilva,kecske,,,,,,,,,2,0,2,0,,,,,0,0,0,8,,,,,,,,,800.8560098000162,None,,,,,,,,,,,szilva,801.856491100014,None,4,6.695272899989504,801.856491100014,None,801.856491100014,None,801.856491100014,None, kötény,808.5719107000041,None,808.5719107000041,None,down,3.2039484000124503,808.5719107000041,None,811.8035843000107,None,4,2.5958601999736857,811.8035843000107,None,,,,,,,796.854026200017,None,791.3789367999998,None,u,3.597593799990136,791.3789367999998,None,794.9910238000157,None,4,1.848506600013934,794.9910238000157,None,,,,,,,,,568568,2022_Apr_28_1204,palt,2021.1.2,118.97411005764394,
10,málna,dominó,,,,,,,,,2,0,2,0,,,,,0,1,1,9,,,,,,,,,814.420099400013,None,,,,,,,,,,,dominó,815.4198900000192,None,4,2.2676632000075188,815.4198900000192,None,815.4198900000192,None,815.4198900000192,None, málna,817.6997166000074,None,817.6997166000074,None,down,4.107990000018617,817.6997166000074,None,821.8358084000065,None,4,0.876500299986219,821.8358084000065,None,,,,,,,,,,,,,,,,,,,,,,,,,,,,,568568,2022_Apr_28_1204,palt,2021.1.2,118.97411005764394,
2,kötény,tisztás,,,,,,,,,2,0,2,0,,,,,0,2,2,1,,,,,,,,,822.7319052000239,None,,,,,,,,,,,tisztás,823.7394653000229,None,4,3.2683605999918655,823.7394653000229,None,823.7394653000229,None,823.7394653000229,None, kötény,827.0274309000233,None,827.0274309000233,None,down,2.2443131000036374,827.0274309000233,None,829.2953115000273,None,4,0.9365446000010706,829.2953115000273,None,,,,,,,,,,,,,,,,,,,,,,,,,,,,,568568,2022_Apr_28_1204,palt,2021.1.2,118.97411005764394,
8,szalvéta,puska,,,,,,,,,2,0,2,0,,,,,0,3,3,7,,,,,,,,,830.2565196000214,None,,,,,,,,,,,szalvéta,831.2612839000067,None,4,3.8581997000146657,831.2612839000067,None,831.2612839000067,None,831.2612839000067,None, puska,835.1412662000221,None,835.1412662000221,None,down,1.9470136000018101,835.1412662000221,None,837.111853200011,None,4,0.6557524999952875,837.111853200011,None,,,,,,,,,,,,,,,,,,,,,,,,,,,,,568568,2022_Apr_28_1204,palt,2021.1.2,118.97411005764394,
7,csavarhúzó,hering,,,,,,,,,2,0,2,0,,,,,0,4,4,6,,,,,,,,,837.7877704999992,None,,,,,,,,,,,hering,838.7964147000166,None,4,1.9875474000000395,838.7964147000166,None,838.7964147000166,None,838.7964147000166,None,csavarhúzó,840.7995844000252,None,840.7995844000252,None,down,2.8082672999880742,840.7995844000252,None,843.6321712000063,None,4,1.7995738000026904,843.6321712000063,None,,,,,,,,,,,,,,,,,,,,,,,,,,,,,568568,2022_Apr_28_1204,palt,2021.1.2,118.97411005764394,
5,karton,hentes,,,,,,,,,2,0,2,0,,,,,0,5,5,4,,,,,,,,,845.4531424000161,None,,,,,,,,,,,hentes,846.4526338000142,None,4,2.2751181999919936,846.4526338000142,None,846.4526338000142,None,846.4526338000142,None, karton,848.7439537000027,None,848.7439537000027,None,down,1.6154518000257667,848.7439537000027,None,850.3870615000196,None,4,0.7486231999937445,850.3870615000196,None,,,,,,,,,,,,,,,,,,,,,,,,,,,,,568568,2022_Apr_28_1204,palt,2021.1.2,118.97411005764394,
6,menta,triatlon,,,,,,,,,2,0,2,0,,,,,0,6,6,5,,,,,,,,,851.1524869000132,None,,,,,,,,,,,triatlon,852.1538227000274,None,4,2.5416556000127457,852.1538227000274,None,852.1538227000274,None,852.1538227000274,None, menta,854.7070759000198,None,854.7070759000198,None,down,1.5567243000259623,854.7070759000198,None,856.2893942000228,None,4,0.8700622000033036,856.2893942000228,None,,,,,,,,,,,,,,,,,,,,,,,,,,,,,568568,2022_Apr_28_1204,palt,2021.1.2,118.97411005764394,
1,bagoly,kirakó,,,,,,,,,2,0,2,0,,,,,0,7,7,0,,,,,,,,,857.1816560000007,None,,,,,,,,,,,bagoly,858.1859181000036,None,4,8.749757700017653,858.1859181000036,None,858.1859181000036,None,858.1859181000036,None,,866.9516784000152,None,866.9516784000152,None,down,1.0564244000124745,866.9516784000152,None,868.0353193000192,None,4,0.7241560000111349,868.0353193000192,None,,,,,,,,,,,,,,,,,,,,,,,,,,,,,568568,2022_Apr_28_1204,palt,2021.1.2,118.97411005764394,
3,fogó,limonádé,,,,,,,,,2,0,2,0,,,,,0,8,8,2,,,,,,,,,868.7810311000212,None,,,,,,,,,,,fogó,869.7872968000011,None,None,,869.7872968000011,None,869.7872968000011,None,869.7872968000011,None, ,884.7930194000073,None,884.7930194000073,None,down,2.870758200006094,884.7930194000073,None,887.6888961000077,None,4,0.5668051000102423,887.6888961000077,None,,,,,,,,,,,,,,,,,,,,,,,,,,,,,568568,2022_Apr_28_1204,palt,2021.1.2,118.97411005764394,
4,mocsár,ananász,,,,,,,,,2,0,2,0,,,,,0,9,9,3,,,,,,,,,888.2805411000154,None,,,,,,,,,,,mocsár,889.2865962000214,None,4,13.673227499995846,889.2865962000214,None,889.2865962000214,None,889.2865962000214,None, ananász,902.9767295000202,None,902.9767295000202,None,down,2.3666366999968886,902.9767295000202,None,905.3675799000193,None,4,0.6718522000010125,905.3675799000193,None,,,,,,,,,,,,,,,,,,,,,,,,,,,,,568568,2022_Apr_28_1204,palt,2021.1.2,118.97411005764394,
,,,,,,,,,,,2,0,2,0,,,,,,,,,,,,,,,,,,,,,,,,,,,,,,,,,,,,,,,,,,,,,,,,,,,,,,,,,,,,,,,,,,,,,,,,,,,4,41.078330799995456,906.0737312000128,None,906.0737312000128,None,,,568568,2022_Apr_28_1204,palt,2021.1.2,118.97411005764394,
10,málna,dominó,,,,,,,,,3,0,3,0,0,0,0,9,,,,,,,,,,,,,951.184522399999,None,952.1846899000229,None,952.1846899000229,None,,,,,,,,,,,,,,,,,,,,,,,,,,,,,,,,,,,,,,,947.1725170999998,None,,,,,,,,,,,,,,,,,,,,,568568,2022_Apr_28_1204,palt,2021.1.2,118.97411005764394,
4,mocsár,ananász,,,,,,,,,3,0,3,0,0,1,1,3,,,,,,,,,,,,,958.1748165000172,None,959.1766795000003,None,959.1766795000003,None,,,,,,,,,,,,,,,,,,,,,,,,,,,,,,,,,,,,,,,,,,,,,,,,,,,,,,,,,,,,,568568,2022_Apr_28_1204,palt,2021.1.2,118.97411005764394,
7,csavarhúzó,hering,,,,,,,,,3,0,3,0,0,2,2,6,,,,,,,,,,,,,965.1743954000121,None,966.1755418000103,None,966.1755418000103,None,,,,,,,,,,,,,,,,,,,,,,,,,,,,,,,,,,,,,,,,,,,,,,,,,,,,,,,,,,,,,568568,2022_Apr_28_1204,palt,2021.1.2,118.97411005764394,
3,fogó,limonádé,,,,,,,,,3,0,3,0,0,3,3,2,,,,,,,,,,,,,972.1744843000197,None,973.1750432000263,None,973.1750432000263,None,,,,,,,,,,,,,,,,,,,,,,,,,,,,,,,,,,,,,,,,,,,,,,,,,,,,,,,,,,,,,568568,2022_Apr_28_1204,palt,2021.1.2,118.97411005764394,
1,bagoly,kirakó,,,,,,,,,3,0,3,0,0,4,4,0,,,,,,,,,,,,,979.18367150001,None,980.1774527000089,None,980.1774527000089,None,,,,,,,,,,,,,,,,,,,,,,,,,,,,,,,,,,,,,,,,,,,,,,,,,,,,,,,,,,,,,568568,2022_Apr_28_1204,palt,2021.1.2,118.97411005764394,
6,menta,triatlon,,,,,,,,,3,0,3,0,0,5,5,5,,,,,,,,,,,,,986.1826793000218,None,987.176240700006,None,987.176240700006,None,,,,,,,,,,,,,,,,,,,,,,,,,,,,,,,,,,,,,,,,,,,,,,,,,,,,,,,,,,,,,568568,2022_Apr_28_1204,palt,2021.1.2,118.97411005764394,
9,szilva,kecske,,,,,,,,,3,0,3,0,0,6,6,8,,,,,,,,,,,,,993.1740561000188,None,994.1760913000035,None,994.1760913000035,None,,,,,,,,,,,,,,,,,,,,,,,,,,,,,,,,,,,,,,,,,,,,,,,,,,,,,,,,,,,,,568568,2022_Apr_28_1204,palt,2021.1.2,118.97411005764394,
2,kötény,tisztás,,,,,,,,,3,0,3,0,0,7,7,1,,,,,,,,,,,,,1000.1820530000259,None,1001.1831448000157,None,1001.1831448000157,None,,,,,,,,,,,,,,,,,,,,,,,,,,,,,,,,,,,,,,,,,,,,,,,,,,,,,,,,,,,,,568568,2022_Apr_28_1204,palt,2021.1.2,118.97411005764394,
8,szalvéta,puska,,,,,,,,,3,0,3,0,0,8,8,7,,,,,,,,,,,,,1007.1823354000226,None,1008.1782487000164,None,1008.1782487000164,None,,,,,,,,,,,,,,,,,,,,,,,,,,,,,,,,,,,,,,,,,,,,,,,,,,,,,,,,,,,,,568568,2022_Apr_28_1204,palt,2021.1.2,118.97411005764394,
5,karton,hentes,,,,,,,,,3,0,3,0,0,9,9,4,,,,,,,,,,,,,1014.1820588000119,None,1015.1754011000157,None,1015.1754011000157,None,,,,,,,,,,,,,,,,,,,,,,,,,,,,,,,,,,,,,,,,,,,,,,,,,,,,,,,,,,,,,568568,2022_Apr_28_1204,palt,2021.1.2,118.97411005764394,
6,menta,triatlon,,,,,,,,,3,0,3,0,,,,,0,0,0,5,,,,,,,,,1028.792223299999,None,,,,,,,,,,,triatlon,1029.7930887000111,None,4,2.1421501000004355,1029.7930887000111,None,1029.7930887000111,None,1029.7930887000111,None, menta,1031.9565377000254,None,1031.9565377000254,None,down,2.195349099987652,1031.9565377000254,None,1034.1743310000165,None,4,0.432900099986,1034.1743310000165,None,,,,,,,1024.7908970999997,None,1021.1739734000002,None,u,2.473602900019614,1021.1739734000002,None,1023.6616728000226,None,4,1.1137119999912102,1023.6616728000226,None,,,,,,,,,568568,2022_Apr_28_1204,palt,2021.1.2,118.97411005764394,
9,szilva,kecske,,,,,,,,,3,0,3,0,,,,,0,1,1,8,,,,,,,,,1034.6284138000046,None,,,,,,,,,,,szilva,1035.6327680000104,None,4,3.2547807000228204,1035.6327680000104,None,1035.6327680000104,None,1035.6327680000104,None, karton,1038.9099997000012,None,1038.9099997000012,None,down,2.1935339999909047,1038.9099997000012,None,1041.1312800000014,None,4,5.988403299998026,1041.1312800000014,None,,,,,,,,,,,,,,,,,,,,,,,,,,,,,568568,2022_Apr_28_1204,palt,2021.1.2,118.97411005764394,
3,fogó,limonádé,,,,,,,,,3,0,3,0,,,,,0,2,2,2,,,,,,,,,1047.1400880000147,None,,,,,,,,,,,fogó,1048.1395123000257,None,4,2.843760099989595,1048.1395123000257,None,1048.1395123000257,None,1048.1395123000257,None, limonádé,1050.9962986000173,None,1050.9962986000173,None,down,3.1070990999869537,1050.9962986000173,None,1054.13136270002,None,4,2.827881699980935,1054.13136270002,None,,,,,,,,,,,,,,,,,,,,,,,,,,,,,568568,2022_Apr_28_1204,palt,2021.1.2,118.97411005764394,
1,bagoly,kirakó,,,,,,,,,3,0,3,0,,,,,0,3,3,0,,,,,,,,,1056.975931699999,None,,,,,,,,,,,bagoly,1057.9821867000137,None,4,3.5691037999931723,1057.9821867000137,None,1057.9821867000137,None,1057.9821867000137,None, kirakó,1061.5649344000267,None,1061.5649344000267,None,down,1.8825099999958184,1061.5649344000267,None,1063.4684402999992,None,4,1.0991432000009809,1063.4684402999992,None,,,,,,,,,,,,,,,,,,,,,,,,,,,,,568568,2022_Apr_28_1204,palt,2021.1.2,118.97411005764394,
5,karton,hentes,,,,,,,,,3,0,3,0,,,,,0,4,4,4,,,,,,,,,1064.5860949000053,None,,,,,,,,,,,hentes,1065.597983100015,None,4,1.7376095000072382,1065.597983100015,None,1065.597983100015,None,1065.597983100015,None, karton,1067.3525272000115,None,1067.3525272000115,None,down,1.7111519000027329,1067.3525272000115,None,1069.085138800001,None,4,0.7226052999903914,1069.085138800001,None,,,,,,,,,,,,,,,,,,,,,,,,,,,,,568568,2022_Apr_28_1204,palt,2021.1.2,118.97411005764394,
10,málna,dominó,,,,,,,,,3,0,3,0,,,,,0,5,5,9,,,,,,,,,1069.8270325000049,None,,,,,,,,,,,dominó,1070.8319740000006,None,4,4.023506900004577,1070.8319740000006,None,1070.8319740000006,None,1070.8319740000006,None, málna,1074.8719877000258,None,1074.8719877000258,None,down,2.015632900001947,1074.8719877000258,None,1076.9068307999987,None,4,0.5005713000136893,1076.9068307999987,None,,,,,,,,,,,,,,,,,,,,,,,,,,,,,568568,2022_Apr_28_1204,palt,2021.1.2,118.97411005764394,
7,csavarhúzó,hering,,,,,,,,,3,0,3,0,,,,,0,6,6,6,,,,,,,,,1077.4231076000142,None,,,,,,,,,,,hering,1078.4322365000262,None,4,1.6792647000111174,1078.4322365000262,None,1078.4322365000262,None,1078.4322365000262,None, csavarhúzó,1080.1306939000206,None,1080.1306939000206,None,down,3.116575099993497,1080.1306939000206,None,1083.2724839000148,None,4,0.718926300003659,1083.2724839000148,None,,,,,,,,,,,,,,,,,,,,,,,,,,,,,568568,2022_Apr_28_1204,palt,2021.1.2,118.97411005764394,
2,kötény,tisztás,,,,,,,,,3,0,3,0,,,,,0,7,7,1,,,,,,,,,1084.0019635000208,None,,,,,,,,,,,tisztás,1085.0164526000153,None,4,2.8151319999888074,1085.0164526000153,None,1085.0164526000153,None,1085.0164526000153,None, kötény,1087.844795800018,None,1087.844795800018,None,down,4.40246440001647,1087.844795800018,None,1092.2651593000046,None,4,0.718026499991538,1092.2651593000046,None,,,,,,,,,,,,,,,,,,,,,,,,,,,,,568568,2022_Apr_28_1204,palt,2021.1.2,118.97411005764394,
8,szalvéta,puska,,,,,,,,,3,0,3,0,,,,,0,8,8,7,,,,,,,,,1092.9937991000188,None,,,,,,,,,,,szalvéta,1093.9981250000128,None,4,1.641322500014212,1093.9981250000128,None,1093.9981250000128,None,1093.9981250000128,None,puska,1095.65226610002,None,1095.65226610002,None,down,2.1710082000063267,1095.65226610002,None,1097.8478355000261,None,4,0.35147119997418486,1097.8478355000261,None,,,,,,,,,,,,,,,,,,,,,,,,,,,,,568568,2022_Apr_28_1204,palt,2021.1.2,118.97411005764394,
4,mocsár,ananász,,,,,,,,,3,0,3,0,,,,,0,9,9,3,,,,,,,,,1098.2090726000024,None,,,,,,,,,,,mocsár,1099.2141475000244,None,4,3.2251896999950986,1099.2141475000244,None,1099.2141475000244,None,1099.2141475000244,None, ananász,1102.454794600024,None,1102.454794600024,None,down,2.544597000000067,1102.454794600024,None,1105.0144041000167,None,4,0.6087934999959543,1105.0144041000167,None,,,,,,,,,,,,,,,,,,,,,,,,,,,,,568568,2022_Apr_28_1204,palt,2021.1.2,118.97411005764394,
,,,,,,,,,,,3,0,3,0,,,,,,,,,,,,,,,,,,,,,,,,,,,,,,,,,,,,,,,,,,,,,,,,,,,,,,,,,,,,,,,,,,,,,,,,,,,4,25.43762360000983,1105.6416478000174,None,1105.6416478000174,None,,,568568,2022_Apr_28_1204,palt,2021.1.2,118.97411005764394,
,,,,,,,,,,,,,,,,,,,,,,,,,,,,,,,,,,,,,,,,,,,,,,,,,,,,,,,,,,,,,,,,,,,,,,,,,,,,,,,,,,,,,,,,,,,,,,,1131.1009299000143,None,,,,,,
