itemno,wordA,wordB,enc_gyak.thisRepN,enc_gyak.thisTrialN,enc_gyak.thisN,enc_gyak.thisIndex,rec_gyak.thisRepN,rec_gyak.thisTrialN,rec_gyak.thisN,rec_gyak.thisIndex,repeat_task.thisRepN,repeat_task.thisTrialN,repeat_task.thisN,repeat_task.thisIndex,enc_loop.thisRepN,enc_loop.thisTrialN,enc_loop.thisN,enc_loop.thisIndex,test_loop.thisRepN,test_loop.thisTrialN,test_loop.thisN,test_loop.thisIndex,int.started,int.stopped,int_key.keys,int_key.rt,int_key.started,int_key.stopped,prepare_gyak_text.started,prepare_gyak_text.stopped,fix.started,fix.stopped,word1.started,word1.stopped,word2.started,word2.stopped,gykrec_inst.started,gykrec_inst.stopped,gyakrec_inst.keys,gyakrec_inst.rt,gyakrec_inst.started,gyakrec_inst.stopped,cueword,cueword1.started,cueword1.stopped,cue_resp.keys,cue_resp.rt,cue_resp.started,cue_resp.stopped,cue_cont_text.started,cue_cont_text.stopped,cue_space.started,cue_space.stopped,test_ansbox.text,test_ansbox.started,test_ansbox.stopped,ans_text.started,ans_text.stopped,ans_continue.keys,ans_continue.rt,ans_continue.started,ans_continue.stopped,feedback_text.started,feedback_text.stopped,feedback_cont.keys,feedback_cont.rt,feedback_cont.started,feedback_cont.stopped,main_prep.started,main_prep.stopped,main_prep_resp.keys,main_prep_resp.rt,main_prep_resp.started,main_prep_resp.stopped,preparation.started,preparation.stopped,break_text.started,break_text.stopped,key_resp.keys,key_resp.rt,key_resp.started,key_resp.stopped,test_instruction.started,test_instruction.stopped,test_i_key.keys,test_i_key.rt,test_i_key.started,test_i_key.stopped,rep_routine.keys,rep_routine.rt,rep_routine.started,rep_routine.stopped,encrep_textbox.started,encrep_textbox.stopped,Résztvevő kódja,date,expName,psychopyVersion,frameRate,
,,,,,,,,,,,,,,,,,,,,,,,11.376159896841273,None,4,67.83852443820797,11.376159896841273,None,,,,,,,,,,,,,,,,,,,,,,,,,,,,,,,,,,,,,,,,,,,,,,,,,,,,,,,,,,,,,,,,,,,851046,2022_May_09_1013,palt,2021.1.2,59.813196089333886,
4,kard,harcsa,0,0,0,3,,,,,,,,,,,,,,,,,,,,,,,79.25449310371187,None,82.27389117027633,None,83.27554634422995,None,83.27554634422995,None,,,,,,,,,,,,,,,,,,,,,,,,,,,,,,,,,,,,,,,,,,,,,,,,,,,,,,,,,,,851046,2022_May_09_1013,palt,2021.1.2,59.813196089333886,
2,lepke,szintetizátor,0,1,1,1,,,,,,,,,,,,,,,,,,,,,,,,,89.26010178599972,None,90.28176926332526,None,90.28176926332526,None,,,,,,,,,,,,,,,,,,,,,,,,,,,,,,,,,,,,,,,,,,,,,,,,,,,,,,,,,,,851046,2022_May_09_1013,palt,2021.1.2,59.813196089333886,
1,sapka,beton,0,2,2,0,,,,,,,,,,,,,,,,,,,,,,,,,96.25852343055885,None,97.27738687768579,None,97.27738687768579,None,,,,,,,,,,,,,,,,,,,,,,,,,,,,,,,,,,,,,,,,,,,,,,,,,,,,,,,,,,,851046,2022_May_09_1013,palt,2021.1.2,59.813196089333886,
3,majoránna,szikla,0,3,3,2,,,,,,,,,,,,,,,,,,,,,,,,,103.25653268105816,None,104.28040612407494,None,104.28040612407494,None,,,,,,,,,,,,,,,,,,,,,,,,,,,,,,,,,,,,,,,,,,,,,,,,,,,,,,,,,,,851046,2022_May_09_1013,palt,2021.1.2,59.813196089333886,
,,,,,,,,,,,,,,,,,,,,,,,,,,,,,,,,,,,,,110.26139214995783,None,4,28.075712545891292,110.26139214995783,None,,,,,,,,,,,,,,,,,,,,,,,,,,,,,,,,,,,,,,,,,,,,,,,,,,,,,851046,2022_May_09_1013,palt,2021.1.2,59.813196089333886,
3,majoránna,szikla,,,,,0,0,0,2,,,,,,,,,,,,,,,,,,,,,138.37572759843897,None,,,,,,,,,,,szikla,139.39576042827684,None,4,13.52274542406667,139.39576042827684,None,139.39576042827684,None,139.39576042827684,None, majoránna,152.9726656822022,None,152.9726656822022,None,down,2.997990590170957,152.9726656822022,None,156.02142738061957,None,4,2.7361415724735707,156.02142738061957,None,,,,,,,,,,,,,,,,,,,,,,,,,,,851046,2022_May_09_1013,palt,2021.1.2,59.813196089333886,
2,lepke,szintetizátor,,,,,0,1,1,1,,,,,,,,,,,,,,,,,,,,,158.80612103349995,None,,,,,,,,,,,szintetizátor,159.81284467235673,None,4,5.881604368099943,159.81284467235673,None,159.81284467235673,None,159.81284467235673,None, láb,165.7563927284209,None,165.7563927284209,None,down,1.9099164885701612,165.7563927284209,None,167.71212755469605,None,4,4.616154833696783,167.71212755469605,None,,,,,,,,,,,,,,,,,,,,,,,,,,,851046,2022_May_09_1013,palt,2021.1.2,59.813196089333886,
4,kard,harcsa,,,,,0,2,2,3,,,,,,,,,,,,,,,,,,,,,172.3708441822091,None,,,,,,,,,,,harcsa,173.39086705981754,None,4,13.803493965882808,173.39086705981754,None,173.39086705981754,None,173.39086705981754,None, kard,187.22250458109193,None,187.22250458109193,None,down,2.4437489659758285,187.22250458109193,None,189.69911972852424,None,4,3.3648576276609674,189.69911972852424,None,,,,,,,,,,,,,,,,,,,,,,,,,,,851046,2022_May_09_1013,palt,2021.1.2,59.813196089333886,
1,sapka,beton,,,,,0,3,3,0,,,,,,,,,,,,,,,,,,,,,193.09479307522997,None,,,,,,,,,,,beton,194.1016852792818,None,4,11.334339541499503,194.1016852792818,None,194.1016852792818,None,194.1016852792818,None, sárga,205.46710458374582,None,205.46710458374582,None,down,2.6948446400929242,205.46710458374582,None,208.1965119432425,None,4,2.4986412146827206,208.1965119432425,None,,,,,,,,,,,,,,,,,,,,,,,,,,,851046,2022_May_09_1013,palt,2021.1.2,59.813196089333886,
,,,,,,,,,,,,,,,,,,,,,,,,,,,,,,,,,,,,,,,,,,,,,,,,,,,,,,,,,,,,,,,,,,,,,210.7318555986276,None,4,58.28721186844632,210.7318555986276,None,,,,,,,,,,,,,,,,,,,,,851046,2022_May_09_1013,palt,2021.1.2,59.813196089333886,
5,karton,hentes,,,,,,,,,0,0,0,0,0,0,0,4,,,,,,,,,,,,,273.09594784048386,None,274.0720218375791,None,274.0720218375791,None,,,,,,,,,,,,,,,,,,,,,,,,,,,,,,,,,,,,,,,269.0595887504751,None,,,,,,,,,,,,,,,,,,,851046,2022_May_09_1013,palt,2021.1.2,59.813196089333886,
4,mocsár,ananász,,,,,,,,,0,0,0,0,0,1,1,3,,,,,,,,,,,,,280.0562550771283,None,281.0715649697231,None,281.0715649697231,None,,,,,,,,,,,,,,,,,,,,,,,,,,,,,,,,,,,,,,,,,,,,,,,,,,,,,,,,,,,851046,2022_May_09_1013,palt,2021.1.2,59.813196089333886,
10,málna,dominó,,,,,,,,,0,0,0,0,0,2,2,9,,,,,,,,,,,,,287.0715068116551,None,288.08879936742596,None,288.08879936742596,None,,,,,,,,,,,,,,,,,,,,,,,,,,,,,,,,,,,,,,,,,,,,,,,,,,,,,,,,,,,851046,2022_May_09_1013,palt,2021.1.2,59.813196089333886,
8,szalvéta,puska,,,,,,,,,0,0,0,0,0,3,3,7,,,,,,,,,,,,,294.0581201801542,None,295.08952183439396,None,295.08952183439396,None,,,,,,,,,,,,,,,,,,,,,,,,,,,,,,,,,,,,,,,,,,,,,,,,,,,,,,,,,,,851046,2022_May_09_1013,palt,2021.1.2,59.813196089333886,
9,szilva,kecske,,,,,,,,,0,0,0,0,0,4,4,8,,,,,,,,,,,,,301.0590914519271,None,302.0714558066102,None,302.0714558066102,None,,,,,,,,,,,,,,,,,,,,,,,,,,,,,,,,,,,,,,,,,,,,,,,,,,,,,,,,,,,851046,2022_May_09_1013,palt,2021.1.2,59.813196089333886,
7,csavarhúzó,hering,,,,,,,,,0,0,0,0,0,5,5,6,,,,,,,,,,,,,308.0579702752875,None,309.07503641874064,None,309.07503641874064,None,,,,,,,,,,,,,,,,,,,,,,,,,,,,,,,,,,,,,,,,,,,,,,,,,,,,,,,,,,,851046,2022_May_09_1013,palt,2021.1.2,59.813196089333886,
6,menta,triatlon,,,,,,,,,0,0,0,0,0,6,6,5,,,,,,,,,,,,,315.0689581173938,None,316.0868070629658,None,316.0868070629658,None,,,,,,,,,,,,,,,,,,,,,,,,,,,,,,,,,,,,,,,,,,,,,,,,,,,,,,,,,,,851046,2022_May_09_1013,palt,2021.1.2,59.813196089333886,
1,bagoly,kirakó,,,,,,,,,0,0,0,0,0,7,7,0,,,,,,,,,,,,,322.0667698790785,None,323.0790692336159,None,323.0790692336159,None,,,,,,,,,,,,,,,,,,,,,,,,,,,,,,,,,,,,,,,,,,,,,,,,,,,,,,,,,,,851046,2022_May_09_1013,palt,2021.1.2,59.813196089333886,
2,kötény,tisztás,,,,,,,,,0,0,0,0,0,8,8,1,,,,,,,,,,,,,329.0665857635904,None,330.0760583844967,None,330.0760583844967,None,,,,,,,,,,,,,,,,,,,,,,,,,,,,,,,,,,,,,,,,,,,,,,,,,,,,,,,,,,,851046,2022_May_09_1013,palt,2021.1.2,59.813196089333886,
3,fogó,limonádé,,,,,,,,,0,0,0,0,0,9,9,2,,,,,,,,,,,,,336.05886472854763,None,337.0710235082079,None,337.0710235082079,None,,,,,,,,,,,,,,,,,,,,,,,,,,,,,,,,,,,,,,,,,,,,,,,,,,,,,,,,,,,851046,2022_May_09_1013,palt,2021.1.2,59.813196089333886,
6,menta,triatlon,,,,,,,,,0,0,0,0,,,,,0,0,0,5,,,,,,,,,359.6445649211528,None,,,,,,,,,,,menta,360.6294727327768,None,None,,360.6294727327768,None,360.6294727327768,None,360.6294727327768,None, ,375.6178271129029,None,375.6178271129029,None,down,2.446217420627363,375.6178271129029,None,378.0931431883946,None,4,7.870705162524246,378.0931431883946,None,,,,,,,355.607162406086,None,343.058822431718,None,u,4.525657684309408,343.058822431718,None,347.631550563965,None,4,7.931395807419904,347.631550563965,None,,,,,,,851046,2022_May_09_1013,palt,2021.1.2,59.813196089333886,
7,csavarhúzó,hering,,,,,,,,,0,0,0,0,,,,,0,1,1,6,,,,,,,,,385.99767865112517,None,,,,,,,,,,,hering,387.02414339606185,None,None,,387.02414339606185,None,387.02414339606185,None,387.02414339606185,None, ,402.00497485196684,None,402.00497485196684,None,down,2.154765607207082,402.00497485196684,None,404.1938176981639,None,4,1.6975295548327267,404.1938176981639,None,,,,,,,,,,,,,,,,,,,,,,,,,,,851046,2022_May_09_1013,palt,2021.1.2,59.813196089333886,
8,szalvéta,puska,,,,,,,,,0,0,0,0,,,,,0,2,2,7,,,,,,,,,405.91778245253954,None,,,,,,,,,,,szalvéta,406.9347353897756,None,4,8.879327493021265,406.9347353897756,None,406.9347353897756,None,406.9347353897756,None, pillangó,415.8558844823856,None,415.8558844823856,None,down,2.943292409181595,415.8558844823856,None,418.8313277591951,None,4,6.525742277968675,418.8313277591951,None,,,,,,,,,,,,,,,,,,,,,,,,,,,851046,2022_May_09_1013,palt,2021.1.2,59.813196089333886,
1,bagoly,kirakó,,,,,,,,,0,0,0,0,,,,,0,3,3,0,,,,,,,,,425.3914069662569,None,,,,,,,,,,,kirakó,426.40813069208525,None,None,,426.40813069208525,None,426.40813069208525,None,426.40813069208525,None,,441.40755813010037,None,441.40755813010037,None,down,1.8872939118882641,441.40755813010037,None,443.32536484103184,None,4,2.8136632401729003,443.32536484103184,None,,,,,,,,,,,,,,,,,,,,,,,,,,,851046,2022_May_09_1013,palt,2021.1.2,59.813196089333886,
9,szilva,kecske,,,,,,,,,0,0,0,0,,,,,0,4,4,8,,,,,,,,,446.17406850587577,None,,,,,,,,,,,szilva,447.1911912524374,None,None,,447.1911912524374,None,447.1911912524374,None,447.1911912524374,None, ,462.1914714688901,None,462.1914714688901,None,down,1.5030889116460457,462.1914714688901,None,463.72745735163335,None,4,1.7770052733831108,463.72745735163335,None,,,,,,,,,,,,,,,,,,,,,,,,,,,851046,2022_May_09_1013,palt,2021.1.2,59.813196089333886,
3,fogó,limonádé,,,,,,,,,0,0,0,0,,,,,0,5,5,2,,,,,,,,,465.5412565015722,None,,,,,,,,,,,limonádé,466.5729029175127,None,None,,466.5729029175127,None,466.5729029175127,None,466.5729029175127,None, ,481.5641033136053,None,481.5641033136053,None,down,2.482114977668971,481.5641033136053,None,484.06861352268606,None,4,1.3466563122346997,484.06861352268606,None,,,,,,,,,,,,,,,,,,,,,,,,,,,851046,2022_May_09_1013,palt,2021.1.2,59.813196089333886,
2,kötény,tisztás,,,,,,,,,0,0,0,0,,,,,0,6,6,1,,,,,,,,,485.4424486497883,None,,,,,,,,,,,tisztás,486.46403650951106,None,None,,486.46403650951106,None,486.46403650951106,None,486.46403650951106,None, ,501.45733526314143,None,501.45733526314143,None,down,1.9167038837913424,501.45733526314143,None,503.40925217978656,None,4,0.6219470095820725,503.40925217978656,None,,,,,,,,,,,,,,,,,,,,,,,,,,,851046,2022_May_09_1013,palt,2021.1.2,59.813196089333886,
5,karton,hentes,,,,,,,,,0,0,0,0,,,,,0,7,7,4,,,,,,,,,504.0595532958396,None,,,,,,,,,,,karton,505.08593780128285,None,None,,505.08593780128285,None,505.08593780128285,None,505.08593780128285,None, ,520.0797410066007,None,520.0797410066007,None,down,1.598043087986298,520.0797410066007,None,521.7220623305766,None,4,1.4936803580494598,521.7220623305766,None,,,,,,,,,,,,,,,,,,,,,,,,,,,851046,2022_May_09_1013,palt,2021.1.2,59.813196089333886,
4,mocsár,ananász,,,,,,,,,0,0,0,0,,,,,0,8,8,3,,,,,,,,,523.2422472422477,None,,,,,,,,,,,ananász,524.2619205490919,None,None,,524.2619205490919,None,524.2619205490919,None,524.2619205490919,None, ,539.24388437788,None,539.24388437788,None,down,1.473688270081766,539.24388437788,None,540.7460331183393,None,4,0.777357021230273,540.7460331183393,None,,,,,,,,,,,,,,,,,,,,,,,,,,,851046,2022_May_09_1013,palt,2021.1.2,59.813196089333886,
10,málna,dominó,,,,,,,,,0,0,0,0,,,,,0,9,9,9,,,,,,,,,541.5671514834976,None,,,,,,,,,,,dominó,542.5821012312081,None,None,,542.5821012312081,None,542.5821012312081,None,542.5821012312081,None, ,557.5867744074203,None,557.5867744074203,None,down,1.7705876645632088,557.5867744074203,None,559.3810150115751,None,4,2.0272833128692582,559.3810150115751,None,,,,,,,,,,,,,,,,,,,,,,,,,,,851046,2022_May_09_1013,palt,2021.1.2,59.813196089333886,
,,,,,,,,,,,0,0,0,0,,,,,,,,,,,,,,,,,,,,,,,,,,,,,,,,,,,,,,,,,,,,,,,,,,,,,,,,,,,,,,,,,,,,,,,,,,,4,20.35069565824233,561.4834659877233,None,561.4834659877233,None,851046,2022_May_09_1013,palt,2021.1.2,59.813196089333886,
4,mocsár,ananász,,,,,,,,,1,0,1,0,0,0,0,3,,,,,,,,,,,,,585.8978553647175,None,586.8848232801538,None,586.8848232801538,None,,,,,,,,,,,,,,,,,,,,,,,,,,,,,,,,,,,,,,,581.8723485182272,None,,,,,,,,,,,,,,,,,,,851046,2022_May_09_1013,palt,2021.1.2,59.813196089333886,
10,málna,dominó,,,,,,,,,1,0,1,0,0,1,1,9,,,,,,,,,,,,,592.8781102155335,None,593.906125014415,None,593.906125014415,None,,,,,,,,,,,,,,,,,,,,,,,,,,,,,,,,,,,,,,,,,,,,,,,,,,,,,,,,,,,851046,2022_May_09_1013,palt,2021.1.2,59.813196089333886,
9,szilva,kecske,,,,,,,,,1,0,1,0,0,2,2,8,,,,,,,,,,,,,599.8704740850953,None,600.9024828231195,None,600.9024828231195,None,,,,,,,,,,,,,,,,,,,,,,,,,,,,,,,,,,,,,,,,,,,,,,,,,,,,,,,,,,,851046,2022_May_09_1013,palt,2021.1.2,59.813196089333886,
1,bagoly,kirakó,,,,,,,,,1,0,1,0,0,3,3,0,,,,,,,,,,,,,606.8710656184703,None,607.8980413463432,None,607.8980413463432,None,,,,,,,,,,,,,,,,,,,,,,,,,,,,,,,,,,,,,,,,,,,,,,,,,,,,,,,,,,,851046,2022_May_09_1013,palt,2021.1.2,59.813196089333886,
2,kötény,tisztás,,,,,,,,,1,0,1,0,0,4,4,1,,,,,,,,,,,,,613.870038365596,None,614.8798841937678,None,614.8798841937678,None,,,,,,,,,,,,,,,,,,,,,,,,,,,,,,,,,,,,,,,,,,,,,,,,,,,,,,,,,,,851046,2022_May_09_1013,palt,2021.1.2,59.813196089333886,
5,karton,hentes,,,,,,,,,1,0,1,0,0,5,5,4,,,,,,,,,,,,,620.8699609251926,None,621.8901461479254,None,621.8901461479254,None,,,,,,,,,,,,,,,,,,,,,,,,,,,,,,,,,,,,,,,,,,,,,,,,,,,,,,,,,,,851046,2022_May_09_1013,palt,2021.1.2,59.813196089333886,
3,fogó,limonádé,,,,,,,,,1,0,1,0,0,6,6,2,,,,,,,,,,,,,627.8787334715016,None,628.9140889451373,None,628.9140889451373,None,,,,,,,,,,,,,,,,,,,,,,,,,,,,,,,,,,,,,,,,,,,,,,,,,,,,,,,,,,,851046,2022_May_09_1013,palt,2021.1.2,59.813196089333886,
7,csavarhúzó,hering,,,,,,,,,1,0,1,0,0,7,7,6,,,,,,,,,,,,,634.8706669087987,None,635.9022461475106,None,635.9022461475106,None,,,,,,,,,,,,,,,,,,,,,,,,,,,,,,,,,,,,,,,,,,,,,,,,,,,,,,,,,,,851046,2022_May_09_1013,palt,2021.1.2,59.813196089333886,
6,menta,triatlon,,,,,,,,,1,0,1,0,0,8,8,5,,,,,,,,,,,,,641.8703904243885,None,642.8785533990012,None,642.8785533990012,None,,,,,,,,,,,,,,,,,,,,,,,,,,,,,,,,,,,,,,,,,,,,,,,,,,,,,,,,,,,851046,2022_May_09_1013,palt,2021.1.2,59.813196089333886,
8,szalvéta,puska,,,,,,,,,1,0,1,0,0,9,9,7,,,,,,,,,,,,,648.8723821068415,None,649.9063791063381,None,649.9063791063381,None,,,,,,,,,,,,,,,,,,,,,,,,,,,,,,,,,,,,,,,,,,,,,,,,,,,,,,,,,,,851046,2022_May_09_1013,palt,2021.1.2,59.813196089333886,
10,málna,dominó,,,,,,,,,1,0,1,0,,,,,0,0,0,9,,,,,,,,,667.2428848046111,None,,,,,,,,,,,dominó,668.2419676478021,None,4,4.359114279854111,668.2419676478021,None,668.2419676478021,None,668.2419676478021,None, menta,672.6401271765353,None,672.6401271765353,None,down,2.155521973851137,672.6401271765353,None,674.8358743559802,None,4,5.022074273205362,674.8358743559802,None,,,,,,,663.2211187382927,None,655.8714052370051,None,u,4.172674887930043,655.8714052370051,None,660.0778843007283,None,4,3.1110506030963734,660.0778843007283,None,,,,,,,851046,2022_May_09_1013,palt,2021.1.2,59.813196089333886,
4,mocsár,ananász,,,,,,,,,1,0,1,0,,,,,0,1,1,3,,,,,,,,,679.8910486872774,None,,,,,,,,,,,ananász,680.9128268827917,None,4,7.310789233655669,680.9128268827917,None,680.9128268827917,None,680.9128268827917,None, menta,688.2771390059497,None,688.2771390059497,None,down,2.4387685157125816,688.2771390059497,None,690.7520936924266,None,4,4.103462989674881,690.7520936924266,None,,,,,,,,,,,,,,,,,,,,,,,,,,,851046,2022_May_09_1013,palt,2021.1.2,59.813196089333886,
5,karton,hentes,,,,,,,,,1,0,1,0,,,,,0,2,2,4,,,,,,,,,694.8738973281579,None,,,,,,,,,,,karton,695.9054445332149,None,None,,695.9054445332149,None,695.9054445332149,None,695.9054445332149,None, ,710.8839764107252,None,710.8839764107252,None,down,1.2393237858777866,710.8839764107252,None,712.1431924516801,None,4,1.0681939757196233,712.1431924516801,None,,,,,,,,,,,,,,,,,,,,,,,,,,,851046,2022_May_09_1013,palt,2021.1.2,59.813196089333886,
1,bagoly,kirakó,,,,,,,,,1,0,1,0,,,,,0,3,3,0,,,,,,,,,713.243290045415,None,,,,,,,,,,,kirakó,714.2685664363671,None,None,,714.2685664363671,None,714.2685664363671,None,714.2685664363671,None, ,729.2591936484678,None,729.2591936484678,None,down,1.167832835461013,729.2591936484678,None,730.4749217197532,None,4,0.006980840815231204,730.4749217197532,None,,,,,,,,,,,,,,,,,,,,,,,,,,,851046,2022_May_09_1013,palt,2021.1.2,59.813196089333886,
2,kötény,tisztás,,,,,,,,,1,0,1,0,,,,,0,4,4,1,,,,,,,,,730.5172272445634,None,,,,,,,,,,,tisztás,731.5702148926212,None,None,,731.5702148926212,None,731.5702148926212,None,731.5702148926212,None, ,746.5274217104306,None,746.5274217104306,None,down,1.8192504631588235,746.5274217104306,None,748.3836881081806,None,4,1.103097868617624,748.3836881081806,None,,,,,,,,,,,,,,,,,,,,,,,,,,,851046,2022_May_09_1013,palt,2021.1.2,59.813196089333886,
7,csavarhúzó,hering,,,,,,,,,1,0,1,0,,,,,0,5,5,6,,,,,,,,,749.5204763242509,None,,,,,,,,,,,hering,750.5688004373806,None,4,5.149928530794568,750.5688004373806,None,750.5688004373806,None,750.5688004373806,None, csavarhúzó,755.7476372873643,None,755.7476372873643,None,down,3.959065078641288,755.7476372873643,None,759.763353975839,None,4,5.212619255296886,759.763353975839,None,,,,,,,,,,,,,,,,,,,,,,,,,,,851046,2022_May_09_1013,palt,2021.1.2,59.813196089333886,
6,menta,triatlon,,,,,,,,,1,0,1,0,,,,,0,6,6,5,,,,,,,,,765.0109471003525,None,,,,,,,,,,,menta,766.0453518285649,None,4,7.272576858871616,766.0453518285649,None,766.0453518285649,None,766.0453518285649,None, triatlon,773.3523984160274,None,773.3523984160274,None,down,2.5460839367005974,773.3523984160274,None,775.9329527034424,None,4,2.287316677509807,775.9329527034424,None,,,,,,,,,,,,,,,,,,,,,,,,,,,851046,2022_May_09_1013,palt,2021.1.2,59.813196089333886,
8,szalvéta,puska,,,,,,,,,1,0,1,0,,,,,0,7,7,7,,,,,,,,,778.2532811133424,None,,,,,,,,,,,szalvéta,779.2823754140409,None,4,6.136936877039261,779.2823754140409,None,779.2823754140409,None,779.2823754140409,None, puska,785.4643313433044,None,785.4643313433044,None,down,2.4018387297401205,785.4643313433044,None,787.9034929706249,None,4,1.385699384030886,787.9034929706249,None,,,,,,,,,,,,,,,,,,,,,,,,,,,851046,2022_May_09_1013,palt,2021.1.2,59.813196089333886,
3,fogó,limonádé,,,,,,,,,1,0,1,0,,,,,0,8,8,2,,,,,,,,,789.3255974735366,None,,,,,,,,,,,limonádé,790.3551722785924,None,None,,790.3551722785924,None,790.3551722785924,None,790.3551722785924,None, ,805.3470882995753,None,805.3470882995753,None,down,1.8469722943846136,805.3470882995753,None,807.2336246008053,None,4,0.661408384446986,807.2336246008053,None,,,,,,,,,,,,,,,,,,,,,,,,,,,851046,2022_May_09_1013,palt,2021.1.2,59.813196089333886,
9,szilva,kecske,,,,,,,,,1,0,1,0,,,,,0,9,9,8,,,,,,,,,807.9310689399717,None,,,,,,,,,,,szilva,808.9405543121975,None,None,,808.9405543121975,None,808.9405543121975,None,808.9405543121975,None, ,823.9471308451612,None,823.9471308451612,None,down,1.2786896820180118,823.9471308451612,None,825.2489553308114,None,4,0.7170209231553599,825.2489553308114,None,,,,,,,,,,,,,,,,,,,,,,,,,,,851046,2022_May_09_1013,palt,2021.1.2,59.813196089333886,
,,,,,,,,,,,1,0,1,0,,,,,,,,,,,,,,,,,,,,,,,,,,,,,,,,,,,,,,,,,,,,,,,,,,,,,,,,,,,,,,,,,,,,,,,,,,,4,33.49602223315742,826.006347943563,None,826.006347943563,None,851046,2022_May_09_1013,palt,2021.1.2,59.813196089333886,
10,málna,dominó,,,,,,,,,2,0,2,0,0,0,0,9,,,,,,,,,,,,,863.5542077246355,None,864.5462319755461,None,864.5462319755461,None,,,,,,,,,,,,,,,,,,,,,,,,,,,,,,,,,,,,,,,859.5242957890732,None,,,,,,,,,,,,,,,,,,,851046,2022_May_09_1013,palt,2021.1.2,59.813196089333886,
9,szilva,kecske,,,,,,,,,2,0,2,0,0,1,1,8,,,,,,,,,,,,,870.5394150349312,None,871.5490742594702,None,871.5490742594702,None,,,,,,,,,,,,,,,,,,,,,,,,,,,,,,,,,,,,,,,,,,,,,,,,,,,,,,,,,,,851046,2022_May_09_1013,palt,2021.1.2,59.813196089333886,
6,menta,triatlon,,,,,,,,,2,0,2,0,0,2,2,5,,,,,,,,,,,,,877.5465414265636,None,878.573146746261,None,878.573146746261,None,,,,,,,,,,,,,,,,,,,,,,,,,,,,,,,,,,,,,,,,,,,,,,,,,,,,,,,,,,,851046,2022_May_09_1013,palt,2021.1.2,59.813196089333886,
8,szalvéta,puska,,,,,,,,,2,0,2,0,0,3,3,7,,,,,,,,,,,,,884.5342946321471,None,885.5533263335237,None,885.5533263335237,None,,,,,,,,,,,,,,,,,,,,,,,,,,,,,,,,,,,,,,,,,,,,,,,,,,,,,,,,,,,851046,2022_May_09_1013,palt,2021.1.2,59.813196089333886,
5,karton,hentes,,,,,,,,,2,0,2,0,0,4,4,4,,,,,,,,,,,,,891.5351461665705,None,892.5707871436607,None,892.5707871436607,None,,,,,,,,,,,,,,,,,,,,,,,,,,,,,,,,,,,,,,,,,,,,,,,,,,,,,,,,,,,851046,2022_May_09_1013,palt,2021.1.2,59.813196089333886,
1,bagoly,kirakó,,,,,,,,,2,0,2,0,0,5,5,0,,,,,,,,,,,,,898.5335130740423,None,899.5520894626388,None,899.5520894626388,None,,,,,,,,,,,,,,,,,,,,,,,,,,,,,,,,,,,,,,,,,,,,,,,,,,,,,,,,,,,851046,2022_May_09_1013,palt,2021.1.2,59.813196089333886,
2,kötény,tisztás,,,,,,,,,2,0,2,0,0,6,6,1,,,,,,,,,,,,,905.5347987728892,None,906.5530517152511,None,906.5530517152511,None,,,,,,,,,,,,,,,,,,,,,,,,,,,,,,,,,,,,,,,,,,,,,,,,,,,,,,,,,,,851046,2022_May_09_1013,palt,2021.1.2,59.813196089333886,
7,csavarhúzó,hering,,,,,,,,,2,0,2,0,0,7,7,6,,,,,,,,,,,,,912.532677711919,None,913.5529736527242,None,913.5529736527242,None,,,,,,,,,,,,,,,,,,,,,,,,,,,,,,,,,,,,,,,,,,,,,,,,,,,,,,,,,,,851046,2022_May_09_1013,palt,2021.1.2,59.813196089333886,
4,mocsár,ananász,,,,,,,,,2,0,2,0,0,8,8,3,,,,,,,,,,,,,919.5406431977171,None,920.5739311034558,None,920.5739311034558,None,,,,,,,,,,,,,,,,,,,,,,,,,,,,,,,,,,,,,,,,,,,,,,,,,,,,,,,,,,,851046,2022_May_09_1013,palt,2021.1.2,59.813196089333886,
3,fogó,limonádé,,,,,,,,,2,0,2,0,0,9,9,2,,,,,,,,,,,,,926.5433909357525,None,927.5816085976548,None,927.5816085976548,None,,,,,,,,,,,,,,,,,,,,,,,,,,,,,,,,,,,,,,,,,,,,,,,,,,,,,,,,,,,851046,2022_May_09_1013,palt,2021.1.2,59.813196089333886,
6,menta,triatlon,,,,,,,,,2,0,2,0,,,,,0,0,0,5,,,,,,,,,942.6051825417671,None,,,,,,,,,,,menta,943.6140294186771,None,4,3.547185520059429,943.6140294186771,None,943.6140294186771,None,943.6140294186771,None,triatlon,947.2064887047745,None,947.2064887047745,None,down,9.793434787541628,947.2064887047745,None,957.0439945984399,None,4,2.866165096871555,957.0439945984399,None,,,,,,,938.5754062049091,None,933.5330282156356,None,u,2.2833644131897017,933.5330282156356,None,935.8440793164773,None,4,2.697495033266023,935.8440793164773,None,,,,,,,851046,2022_May_09_1013,palt,2021.1.2,59.813196089333886,
2,kötény,tisztás,,,,,,,,,2,0,2,0,,,,,0,1,1,1,,,,,,,,,959.9485670708818,None,,,,,,,,,,,tisztás,960.9957050069934,None,None,,960.9957050069934,None,960.9957050069934,None,960.9957050069934,None, 4,975.9581899077166,None,975.9581899077166,None,down,1.5214628353714943,975.9581899077166,None,977.533331446466,None,4,1.1126062552211806,977.533331446466,None,,,,,,,,,,,,,,,,,,,,,,,,,,,851046,2022_May_09_1013,palt,2021.1.2,59.813196089333886,
8,szalvéta,puska,,,,,,,,,2,0,2,0,,,,,0,2,2,7,,,,,,,,,978.67397333798,None,,,,,,,,,,,szalvéta,979.6964690244058,None,4,14.72134235163685,979.6964690244058,None,979.6964690244058,None,979.6964690244058,None,puska,994.4559407122433,None,994.4559407122433,None,down,2.335558684892021,994.4559407122433,None,996.8207622632617,None,4,2.5377536409068853,996.8207622632617,None,,,,,,,,,,,,,,,,,,,,,,,,,,,851046,2022_May_09_1013,palt,2021.1.2,59.813196089333886,
1,bagoly,kirakó,,,,,,,,,2,0,2,0,,,,,0,3,3,0,,,,,,,,,999.3854141915217,None,,,,,,,,,,,kirakó,1000.4175899397815,None,4,11.526102112024091,1000.4175899397815,None,1000.4175899397815,None,1000.4175899397815,None,bozót,1011.979761906201,None,1011.979761906201,None,down,2.3475691148778424,1011.979761906201,None,1014.3694614495616,None,4,2.039093454834074,1014.3694614495616,None,,,,,,,,,,,,,,,,,,,,,,,,,,,851046,2022_May_09_1013,palt,2021.1.2,59.813196089333886,
9,szilva,kecske,,,,,,,,,2,0,2,0,,,,,0,4,4,8,,,,,,,,,1016.44877295685,None,,,,,,,,,,,szilva,1017.4925053772749,None,4,8.146531412261538,1017.4925053772749,None,1017.4925053772749,None,1017.4925053772749,None, kötény,1025.681048724684,None,1025.681048724684,None,down,3.0139262268785387,1025.681048724684,None,1028.7307278908556,None,4,4.079307153238915,1028.7307278908556,None,,,,,,,,,,,,,,,,,,,,,,,,,,,851046,2022_May_09_1013,palt,2021.1.2,59.813196089333886,
3,fogó,limonádé,,,,,,,,,2,0,2,0,,,,,0,5,5,2,,,,,,,,,1032.8566321408143,None,,,,,,,,,,,limonádé,1033.901469876524,None,None,,1033.901469876524,None,1033.901469876524,None,1033.901469876524,None, ,1048.868474938441,None,1048.868474938441,None,down,1.6022155445534736,1048.868474938441,None,1050.4951333779609,None,4,0.515735970926471,1050.4951333779609,None,,,,,,,,,,,,,,,,,,,,,,,,,,,851046,2022_May_09_1013,palt,2021.1.2,59.813196089333886,
10,málna,dominó,,,,,,,,,2,0,2,0,,,,,0,6,6,9,,,,,,,,,1051.0405701112468,None,,,,,,,,,,,dominó,1052.0762751556467,None,None,,1052.0762751556467,None,1052.0762751556467,None,1052.0762751556467,None, ,1067.0443454132183,None,1067.0443454132183,None,down,3.858071165625006,1067.0443454132183,None,1070.9383965524612,None,4,1.113213027943857,1070.9383965524612,None,,,,,,,,,,,,,,,,,,,,,,,,,,,851046,2022_May_09_1013,palt,2021.1.2,59.813196089333886,
5,karton,hentes,,,,,,,,,2,0,2,0,,,,,0,7,7,4,,,,,,,,,1072.0838864055695,None,,,,,,,,,,,karton,1073.1061519475188,None,None,,1073.1061519475188,None,1073.1061519475188,None,1073.1061519475188,None, ,1088.115574496449,None,1088.115574496449,None,down,2.4027574415085837,1088.115574496449,None,1090.5625607238617,None,4,0.7280103204539046,1090.5625607238617,None,,,,,,,,,,,,,,,,,,,,,,,,,,,851046,2022_May_09_1013,palt,2021.1.2,59.813196089333886,
4,mocsár,ananász,,,,,,,,,2,0,2,0,,,,,0,8,8,3,,,,,,,,,1091.3240449315635,None,,,,,,,,,,,ananász,1092.3455808534054,None,None,,1092.3455808534054,None,1092.3455808534054,None,1092.3455808534054,None, mocsár,1107.3420403610216,None,1107.3420403610216,None,down,1.8158915982348844,1107.3420403610216,None,1109.2081046920503,None,4,1.6709236132446676,1109.2081046920503,None,,,,,,,,,,,,,,,,,,,,,,,,,,,851046,2022_May_09_1013,palt,2021.1.2,59.813196089333886,
7,csavarhúzó,hering,,,,,,,,,2,0,2,0,,,,,0,9,9,6,,,,,,,,,1110.9074726033723,None,,,,,,,,,,,hering,1111.927896678797,None,None,,1111.927896678797,None,1111.927896678797,None,1111.927896678797,None, csavarhúzó,1126.9279032099294,None,1126.9279032099294,None,down,4.261960357893258,1126.9279032099294,None,1131.2153442897834,None,4,1.6073947275290266,1131.2153442897834,None,,,,,,,,,,,,,,,,,,,,,,,,,,,851046,2022_May_09_1013,palt,2021.1.2,59.813196089333886,
,,,,,,,,,,,2,0,2,0,,,,,,,,,,,,,,,,,,,,,,,,,,,,,,,,,,,,,,,,,,,,,,,,,,,,,,,,,,,,,,,,,,,,,,,,,,,4,25.774729953496717,1132.8739781896584,None,1132.8739781896584,None,851046,2022_May_09_1013,palt,2021.1.2,59.813196089333886,
9,szilva,kecske,,,,,,,,,3,0,3,0,0,0,0,8,,,,,,,,,,,,,1162.7146930432646,None,1163.6982868544292,None,1163.6982868544292,None,,,,,,,,,,,,,,,,,,,,,,,,,,,,,,,,,,,,,,,1158.6844324700069,None,,,,,,,,,,,,,,,,,,,851046,2022_May_09_1013,palt,2021.1.2,59.813196089333886,
4,mocsár,ananász,,,,,,,,,3,0,3,0,0,1,1,3,,,,,,,,,,,,,1169.681323653902,None,1170.706341287936,None,1170.706341287936,None,,,,,,,,,,,,,,,,,,,,,,,,,,,,,,,,,,,,,,,,,,,,,,,,,,,,,,,,,,,851046,2022_May_09_1013,palt,2021.1.2,59.813196089333886,
5,karton,hentes,,,,,,,,,3,0,3,0,0,2,2,4,,,,,,,,,,,,,1176.6933135574218,None,1177.7184412876377,None,1177.7184412876377,None,,,,,,,,,,,,,,,,,,,,,,,,,,,,,,,,,,,,,,,,,,,,,,,,,,,,,,,,,,,851046,2022_May_09_1013,palt,2021.1.2,59.813196089333886,
7,csavarhúzó,hering,,,,,,,,,3,0,3,0,0,3,3,6,,,,,,,,,,,,,1183.67998197407,None,1184.7126677720807,None,1184.7126677720807,None,,,,,,,,,,,,,,,,,,,,,,,,,,,,,,,,,,,,,,,,,,,,,,,,,,,,,,,,,,,851046,2022_May_09_1013,palt,2021.1.2,59.813196089333886,
1,bagoly,kirakó,,,,,,,,,3,0,3,0,0,4,4,0,,,,,,,,,,,,,1190.690681824577,None,1191.7108539851615,None,1191.7108539851615,None,,,,,,,,,,,,,,,,,,,,,,,,,,,,,,,,,,,,,,,,,,,,,,,,,,,,,,,,,,,851046,2022_May_09_1013,palt,2021.1.2,59.813196089333886,
6,menta,triatlon,,,,,,,,,3,0,3,0,0,5,5,5,,,,,,,,,,,,,1197.681058676797,None,1198.704228313174,None,1198.704228313174,None,,,,,,,,,,,,,,,,,,,,,,,,,,,,,,,,,,,,,,,,,,,,,,,,,,,,,,,,,,,851046,2022_May_09_1013,palt,2021.1.2,59.813196089333886,
3,fogó,limonádé,,,,,,,,,3,0,3,0,0,6,6,2,,,,,,,,,,,,,1204.6938559518894,None,1205.6965564170387,None,1205.6965564170387,None,,,,,,,,,,,,,,,,,,,,,,,,,,,,,,,,,,,,,,,,,,,,,,,,,,,,,,,,,,,851046,2022_May_09_1013,palt,2021.1.2,59.813196089333886,
2,kötény,tisztás,,,,,,,,,3,0,3,0,0,7,7,1,,,,,,,,,,,,,1211.6807694411837,None,1212.6914739569183,None,1212.6914739569183,None,,,,,,,,,,,,,,,,,,,,,,,,,,,,,,,,,,,,,,,,,,,,,,,,,,,,,,,,,,,851046,2022_May_09_1013,palt,2021.1.2,59.813196089333886,
8,szalvéta,puska,,,,,,,,,3,0,3,0,0,8,8,7,,,,,,,,,,,,,1218.6807983648032,None,1219.7165338877821,None,1219.7165338877821,None,,,,,,,,,,,,,,,,,,,,,,,,,,,,,,,,,,,,,,,,,,,,,,,,,,,,,,,,,,,851046,2022_May_09_1013,palt,2021.1.2,59.813196089333886,
10,málna,dominó,,,,,,,,,3,0,3,0,0,9,9,9,,,,,,,,,,,,,1225.6972120177234,None,1226.7115696099354,None,1226.7115696099354,None,,,,,,,,,,,,,,,,,,,,,,,,,,,,,,,,,,,,,,,,,,,,,,,,,,,,,,,,,,,851046,2022_May_09_1013,palt,2021.1.2,59.813196089333886,
9,szilva,kecske,,,,,,,,,3,0,3,0,,,,,0,0,0,8,,,,,,,,,1241.122382728965,None,,,,,,,,,,,szilva,1242.1347520597046,None,4,9.469793230760843,1242.1347520597046,None,1242.1347520597046,None,1242.1347520597046,None,kötény,1251.6404416036094,None,1251.6404416036094,None,down,2.988106197444722,1251.6404416036094,None,1254.6689095383044,None,4,2.4743102819193155,1254.6689095383044,None,,,,,,,1237.0902666938491,None,1232.680903484812,None,u,2.0596462866524234,1232.680903484812,None,1234.7724272649502,None,4,2.279862485593185,1234.7724272649502,None,,,,,,,851046,2022_May_09_1013,palt,2021.1.2,59.813196089333886,
6,menta,triatlon,,,,,,,,,3,0,3,0,,,,,0,1,1,5,,,,,,,,,1257.1694155450677,None,,,,,,,,,,,menta,1258.1922707542544,None,4,3.3640937969321385,1258.1922707542544,None,1258.1922707542544,None,1258.1922707542544,None,triatlon,1261.5965592783177,None,1261.5965592783177,None,down,2.3273319541476667,1261.5965592783177,None,1263.9677943951683,None,4,1.173103143228218,1263.9677943951683,None,,,,,,,,,,,,,,,,,,,,,,,,,,,851046,2022_May_09_1013,palt,2021.1.2,59.813196089333886,
8,szalvéta,puska,,,,,,,,,3,0,3,0,,,,,0,2,2,7,,,,,,,,,1265.1846411549486,None,,,,,,,,,,,szalvéta,1266.214920388651,None,4,4.4770340726245195,1266.214920388651,None,1266.214920388651,None,1266.214920388651,None, puska,1270.729709657142,None,1270.729709657142,None,down,1.7705550089012831,1270.729709657142,None,1272.5333553939126,None,4,0.5894506140612066,1272.5333553939126,None,,,,,,,,,,,,,,,,,,,,,,,,,,,851046,2022_May_09_1013,palt,2021.1.2,59.813196089333886,
2,kötény,tisztás,,,,,,,,,3,0,3,0,,,,,0,3,3,1,,,,,,,,,1273.1660554361297,None,,,,,,,,,,,tisztás,1274.2023352195974,None,4,2.0095273579936475,1274.2023352195974,None,1274.2023352195974,None,1274.2023352195974,None, kötény,1276.241374248406,None,1276.241374248406,None,down,1.8744751773774624,1276.241374248406,None,1278.1522834682837,None,4,0.41355650301557034,1278.1522834682837,None,,,,,,,,,,,,,,,,,,,,,,,,,,,851046,2022_May_09_1013,palt,2021.1.2,59.813196089333886,
10,málna,dominó,,,,,,,,,3,0,3,0,,,,,0,4,4,9,,,,,,,,,1278.6099089001073,None,,,,,,,,,,,dominó,1279.6251547253923,None,4,5.466743505909108,1279.6251547253923,None,1279.6251547253923,None,1279.6251547253923,None, menta,1285.1180283338763,None,1285.1180283338763,None,down,2.054016766953282,1285.1180283338763,None,1287.2279375449289,None,4,1.0507378305774182,1287.2279375449289,None,,,,,,,,,,,,,,,,,,,,,,,,,,,851046,2022_May_09_1013,palt,2021.1.2,59.813196089333886,
4,mocsár,ananász,,,,,,,,,3,0,3,0,,,,,0,5,5,3,,,,,,,,,1288.298617702676,None,,,,,,,,,,,ananász,1289.3201660646591,None,4,4.619598603225313,1289.3201660646591,None,1289.3201660646591,None,1289.3201660646591,None,mocsár,1293.9684325794224,None,1293.9684325794224,None,down,1.9231721865944564,1293.9684325794224,None,1295.9195091577712,None,4,0.9030165093718097,1295.9195091577712,None,,,,,,,,,,,,,,,,,,,,,,,,,,,851046,2022_May_09_1013,palt,2021.1.2,59.813196089333886,
1,bagoly,kirakó,,,,,,,,,3,0,3,0,,,,,0,6,6,0,,,,,,,,,1296.846816791338,None,,,,,,,,,,,kirakó,1297.9082812190754,None,4,13.871484543662518,1297.9082812190754,None,1297.9082812190754,None,1297.9082812190754,None,bozót,1311.8191932379268,None,1311.8191932379268,None,down,1.7681851431261748,1311.8191932379268,None,1313.6226066532545,None,4,1.0317795266164467,1313.6226066532545,None,,,,,,,,,,,,,,,,,,,,,,,,,,,851046,2022_May_09_1013,palt,2021.1.2,59.813196089333886,
7,csavarhúzó,hering,,,,,,,,,3,0,3,0,,,,,0,7,7,6,,,,,,,,,1314.687817459344,None,,,,,,,,,,,hering,1315.7101293411106,None,4,2.7571568702114746,1315.7101293411106,None,1315.7101293411106,None,1315.7101293411106,None,csavarhúzó,1318.492329658824,None,1318.492329658824,None,down,2.326918316190131,1318.492329658824,None,1320.8517708058935,None,4,0.4143747597699985,1320.8517708058935,None,,,,,,,,,,,,,,,,,,,,,,,,,,,851046,2022_May_09_1013,palt,2021.1.2,59.813196089333886,
5,karton,hentes,,,,,,,,,3,0,3,0,,,,,0,8,8,4,,,,,,,,,1321.3035916216904,None,,,,,,,,,,,karton,1322.324180219206,None,None,,1322.324180219206,None,1322.324180219206,None,1322.324180219206,None, ,1337.315073963371,None,1337.315073963371,None,down,3.919787508319132,1337.315073963371,None,1341.277766305022,None,4,1.830173615948297,1341.277766305022,None,,,,,,,,,,,,,,,,,,,,,,,,,,,851046,2022_May_09_1013,palt,2021.1.2,59.813196089333886,
3,fogó,limonádé,,,,,,,,,3,0,3,0,,,,,0,9,9,2,,,,,,,,,1343.1379563546507,None,,,,,,,,,,,limonádé,1344.1619280754821,None,None,,1344.1619280754821,None,1344.1619280754821,None,1344.1619280754821,None, ,1359.158661579364,None,1359.158661579364,None,down,2.1885629408061504,1359.158661579364,None,1361.3796891929815,None,4,0.8780495694372803,1361.3796891929815,None,,,,,,,,,,,,,,,,,,,,,,,,,,,851046,2022_May_09_1013,palt,2021.1.2,59.813196089333886,
,,,,,,,,,,,3,0,3,0,,,,,,,,,,,,,,,,,,,,,,,,,,,,,,,,,,,,,,,,,,,,,,,,,,,,,,,,,,,,,,,,,,,,,,,,,,,4,5.898731157649308,1362.2961607552134,None,1362.2961607552134,None,851046,2022_May_09_1013,palt,2021.1.2,59.813196089333886,
