itemno,wordA,wordB,enc_gyak.thisRepN,enc_gyak.thisTrialN,enc_gyak.thisN,enc_gyak.thisIndex,rec_gyak.thisRepN,rec_gyak.thisTrialN,rec_gyak.thisN,rec_gyak.thisIndex,repeat_task.thisRepN,repeat_task.thisTrialN,repeat_task.thisN,repeat_task.thisIndex,enc_loop.thisRepN,enc_loop.thisTrialN,enc_loop.thisN,enc_loop.thisIndex,test_loop.thisRepN,test_loop.thisTrialN,test_loop.thisN,test_loop.thisIndex,int.started,int.stopped,int_key.keys,int_key.rt,int_key.started,int_key.stopped,prepare_gyak_text.started,prepare_gyak_text.stopped,fix.started,fix.stopped,word1.started,word1.stopped,word2.started,word2.stopped,gykrec_inst.started,gykrec_inst.stopped,gyakrec_inst.keys,gyakrec_inst.rt,gyakrec_inst.started,gyakrec_inst.stopped,cueword,cueword1.started,cueword1.stopped,cue_resp.keys,cue_resp.rt,cue_resp.started,cue_resp.stopped,cue_cont_text.started,cue_cont_text.stopped,cue_space.started,cue_space.stopped,test_ansbox.text,test_ansbox.started,test_ansbox.stopped,ans_text.started,ans_text.stopped,ans_continue.keys,ans_continue.rt,ans_continue.started,ans_continue.stopped,feedback_text.started,feedback_text.stopped,feedback_cont.keys,feedback_cont.rt,feedback_cont.started,feedback_cont.stopped,main_prep.started,main_prep.stopped,main_prep_resp.keys,main_prep_resp.rt,main_prep_resp.started,main_prep_resp.stopped,preparation.started,preparation.stopped,break_text.started,break_text.stopped,key_resp.keys,key_resp.rt,key_resp.started,key_resp.stopped,test_instruction.started,test_instruction.stopped,test_i_key.keys,test_i_key.rt,test_i_key.started,test_i_key.stopped,rep_routine.keys,rep_routine.rt,rep_routine.started,rep_routine.stopped,encrep_textbox.started,encrep_textbox.stopped,Résztvevő kódja,date,expName,psychopyVersion,frameRate,
,,,,,,,,,,,,,,,,,,,,,,,25.05084792675916,None,4,95.10123898566235,25.05084792675916,None,,,,,,,,,,,,,,,,,,,,,,,,,,,,,,,,,,,,,,,,,,,,,,,,,,,,,,,,,,,,,,,,,,,905303,2022_May_09_1547,palt,2021.1.2,54.00755179326402,
4,kard,harcsa,0,0,0,3,,,,,,,,,,,,,,,,,,,,,,,120.17586705368012,None,123.19191371952184,None,124.19842369714752,None,124.19842369714752,None,,,,,,,,,,,,,,,,,,,,,,,,,,,,,,,,,,,,,,,,,,,,,,,,,,,,,,,,,,,905303,2022_May_09_1547,palt,2021.1.2,54.00755179326402,
2,lepke,szintetizátor,0,1,1,1,,,,,,,,,,,,,,,,,,,,,,,,,130.19017612887546,None,131.19232207036112,None,131.19232207036112,None,,,,,,,,,,,,,,,,,,,,,,,,,,,,,,,,,,,,,,,,,,,,,,,,,,,,,,,,,,,905303,2022_May_09_1547,palt,2021.1.2,54.00755179326402,
3,majoránna,szikla,0,2,2,2,,,,,,,,,,,,,,,,,,,,,,,,,137.1879241344286,None,138.2029721599538,None,138.2029721599538,None,,,,,,,,,,,,,,,,,,,,,,,,,,,,,,,,,,,,,,,,,,,,,,,,,,,,,,,,,,,905303,2022_May_09_1547,palt,2021.1.2,54.00755179326402,
1,sapka,beton,0,3,3,0,,,,,,,,,,,,,,,,,,,,,,,,,144.19382018630859,None,145.21049446228426,None,145.21049446228426,None,,,,,,,,,,,,,,,,,,,,,,,,,,,,,,,,,,,,,,,,,,,,,,,,,,,,,,,,,,,905303,2022_May_09_1547,palt,2021.1.2,54.00755179326402,
,,,,,,,,,,,,,,,,,,,,,,,,,,,,,,,,,,,,,151.18879401823506,None,4,15.962833849480376,151.18879401823506,None,,,,,,,,,,,,,,,,,,,,,,,,,,,,,,,,,,,,,,,,,,,,,,,,,,,,,905303,2022_May_09_1547,palt,2021.1.2,54.00755179326402,
1,sapka,beton,,,,,0,0,0,0,,,,,,,,,,,,,,,,,,,,,167.18937684351113,None,,,,,,,,,,,beton,168.20621968468186,None,4,14.204035489470698,168.20621968468186,None,168.20621968468186,None,168.20621968468186,None,sapka,182.4739790605381,None,182.4739790605381,None,down,2.2602414276916534,182.4739790605381,None,184.78045806207228,None,4,9.577495854231529,184.78045806207228,None,,,,,,,,,,,,,,,,,,,,,,,,,,,905303,2022_May_09_1547,palt,2021.1.2,54.00755179326402,
4,kard,harcsa,,,,,0,1,1,3,,,,,,,,,,,,,,,,,,,,,194.39003325277008,None,,,,,,,,,,,kard,195.41063802258577,None,4,7.865305787301622,195.41063802258577,None,195.41063802258577,None,195.41063802258577,None, harcsa,203.31173935707193,None,203.31173935707193,None,down,5.1340056454064324,203.31173935707193,None,208.4795830778312,None,4,1.5992491692304611,208.4795830778312,None,,,,,,,,,,,,,,,,,,,,,,,,,,,905303,2022_May_09_1547,palt,2021.1.2,54.00755179326402,
2,lepke,szintetizátor,,,,,0,2,2,1,,,,,,,,,,,,,,,,,,,,,210.12190782278776,None,,,,,,,,,,,szintetizátor,211.1491003218107,None,None,,211.1491003218107,None,211.1491003218107,None,211.1491003218107,None, ,226.1400152144488,None,226.1400152144488,None,down,3.56945541605819,226.1400152144488,None,229.75019904389046,None,4,2.746373981004581,229.75019904389046,None,,,,,,,,,,,,,,,,,,,,,,,,,,,905303,2022_May_09_1547,palt,2021.1.2,54.00755179326402,
3,majoránna,szikla,,,,,0,3,3,2,,,,,,,,,,,,,,,,,,,,,232.5220260672504,None,,,,,,,,,,,szikla,233.536769617931,None,4,11.534595063887537,233.536769617931,None,233.536769617931,None,233.536769617931,None, ,245.1184254885884,None,245.1184254885884,None,down,1.551001874729991,245.1184254885884,None,246.70070617028978,None,4,27.805394212598912,246.70070617028978,None,,,,,,,,,,,,,,,,,,,,,,,,,,,905303,2022_May_09_1547,palt,2021.1.2,54.00755179326402,
,,,,,,,,,,,,,,,,,,,,,,,,,,,,,,,,,,,,,,,,,,,,,,,,,,,,,,,,,,,,,,,,,,,,,274.5369472024031,None,4,7.602017433731817,274.5369472024031,None,,,,,,,,,,,,,,,,,,,,,905303,2022_May_09_1547,palt,2021.1.2,54.00755179326402,
4,mocsár,ananász,,,,,,,,,0,0,0,0,0,0,0,3,,,,,,,,,,,,,286.18801432615146,None,287.18976062489673,None,287.18976062489673,None,,,,,,,,,,,,,,,,,,,,,,,,,,,,,,,,,,,,,,,282.1718830667669,None,,,,,,,,,,,,,,,,,,,905303,2022_May_09_1547,palt,2021.1.2,54.00755179326402,
2,kötény,tisztás,,,,,,,,,0,0,0,0,0,1,1,1,,,,,,,,,,,,,293.1870060446672,None,294.2043978115544,None,294.2043978115544,None,,,,,,,,,,,,,,,,,,,,,,,,,,,,,,,,,,,,,,,,,,,,,,,,,,,,,,,,,,,905303,2022_May_09_1547,palt,2021.1.2,54.00755179326402,
10,málna,dominó,,,,,,,,,0,0,0,0,0,2,2,9,,,,,,,,,,,,,300.1850302235689,None,301.1994515720289,None,301.1994515720289,None,,,,,,,,,,,,,,,,,,,,,,,,,,,,,,,,,,,,,,,,,,,,,,,,,,,,,,,,,,,905303,2022_May_09_1547,palt,2021.1.2,54.00755179326402,
6,menta,triatlon,,,,,,,,,0,0,0,0,0,3,3,5,,,,,,,,,,,,,307.1861918310169,None,308.19189848017413,None,308.19189848017413,None,,,,,,,,,,,,,,,,,,,,,,,,,,,,,,,,,,,,,,,,,,,,,,,,,,,,,,,,,,,905303,2022_May_09_1547,palt,2021.1.2,54.00755179326402,
5,karton,hentes,,,,,,,,,0,0,0,0,0,4,4,4,,,,,,,,,,,,,314.1857107046526,None,315.1946343999589,None,315.1946343999589,None,,,,,,,,,,,,,,,,,,,,,,,,,,,,,,,,,,,,,,,,,,,,,,,,,,,,,,,,,,,905303,2022_May_09_1547,palt,2021.1.2,54.00755179326402,
1,bagoly,kirakó,,,,,,,,,0,0,0,0,0,5,5,0,,,,,,,,,,,,,321.18499445787165,None,322.200662629446,None,322.200662629446,None,,,,,,,,,,,,,,,,,,,,,,,,,,,,,,,,,,,,,,,,,,,,,,,,,,,,,,,,,,,905303,2022_May_09_1547,palt,2021.1.2,54.00755179326402,
3,fogó,limonádé,,,,,,,,,0,0,0,0,0,6,6,2,,,,,,,,,,,,,328.1871204948984,None,329.2039745323127,None,329.2039745323127,None,,,,,,,,,,,,,,,,,,,,,,,,,,,,,,,,,,,,,,,,,,,,,,,,,,,,,,,,,,,905303,2022_May_09_1547,palt,2021.1.2,54.00755179326402,
9,szilva,kecske,,,,,,,,,0,0,0,0,0,7,7,8,,,,,,,,,,,,,335.1834008630831,None,336.19859786052257,None,336.19859786052257,None,,,,,,,,,,,,,,,,,,,,,,,,,,,,,,,,,,,,,,,,,,,,,,,,,,,,,,,,,,,905303,2022_May_09_1547,palt,2021.1.2,54.00755179326402,
8,szalvéta,puska,,,,,,,,,0,0,0,0,0,8,8,7,,,,,,,,,,,,,342.1831480151741,None,343.2056169550633,None,343.2056169550633,None,,,,,,,,,,,,,,,,,,,,,,,,,,,,,,,,,,,,,,,,,,,,,,,,,,,,,,,,,,,905303,2022_May_09_1547,palt,2021.1.2,54.00755179326402,
7,csavarhúzó,hering,,,,,,,,,0,0,0,0,0,9,9,6,,,,,,,,,,,,,349.1852594349766,None,350.2023081621155,None,350.2023081621155,None,,,,,,,,,,,,,,,,,,,,,,,,,,,,,,,,,,,,,,,,,,,,,,,,,,,,,,,,,,,905303,2022_May_09_1547,palt,2021.1.2,54.00755179326402,
3,fogó,limonádé,,,,,,,,,0,0,0,0,,,,,0,0,0,2,,,,,,,,,372.90903043258004,None,,,,,,,,,,,limonádé,373.8987787415972,None,None,,373.8987787415972,None,373.8987787415972,None,373.8987787415972,None, fecske,388.881017188658,None,388.881017188658,None,down,4.730438655242324,388.881017188658,None,393.65025477611925,None,4,5.062400866881944,393.65025477611925,None,,,,,,,368.87324981368147,None,356.1879319095751,None,u,2.28807522112038,356.1879319095751,None,358.5281771440059,None,4,10.32546778419055,358.5281771440059,None,,,,,,,905303,2022_May_09_1547,palt,2021.1.2,54.00755179326402,
1,bagoly,kirakó,,,,,,,,,0,0,0,0,,,,,0,1,1,0,,,,,,,,,398.75199323752895,None,,,,,,,,,,,kirakó,399.7696779719554,None,4,6.242848727968521,399.7696779719554,None,399.7696779719554,None,399.7696779719554,None, bagoly,406.05236719106324,None,406.05236719106324,None,down,2.5029088391456753,406.05236719106324,None,408.5957898495253,None,4,2.4177152753109112,408.5957898495253,None,,,,,,,,,,,,,,,,,,,,,,,,,,,905303,2022_May_09_1547,palt,2021.1.2,54.00755179326402,
8,szalvéta,puska,,,,,,,,,0,0,0,0,,,,,0,2,2,7,,,,,,,,,411.0454665898578,None,,,,,,,,,,,szalvéta,412.0670025116997,None,None,,412.0670025116997,None,412.0670025116997,None,412.0670025116997,None, pacal,427.0710745132528,None,427.0710745132528,None,down,2.7799417921341956,427.0710745132528,None,429.9040235468419,None,4,1.640888519352302,429.9040235468419,None,,,,,,,,,,,,,,,,,,,,,,,,,,,905303,2022_May_09_1547,palt,2021.1.2,54.00755179326402,
5,karton,hentes,,,,,,,,,0,0,0,0,,,,,0,3,3,4,,,,,,,,,431.57029979734216,None,,,,,,,,,,,hentes,432.59820201213006,None,None,,432.59820201213006,None,432.59820201213006,None,432.59820201213006,None, kecske,447.5994419930503,None,447.5994419930503,None,down,2.683249092195183,447.5994419930503,None,450.3087107805768,None,4,2.1919239825801924,450.3087107805768,None,,,,,,,,,,,,,,,,,,,,,,,,,,,905303,2022_May_09_1547,palt,2021.1.2,54.00755179326402,
7,csavarhúzó,hering,,,,,,,,,0,0,0,0,,,,,0,4,4,6,,,,,,,,,452.5242068413645,None,,,,,,,,,,,hering,453.5490101922769,None,4,14.075468095135875,453.5490101922769,None,453.5490101922769,None,453.5490101922769,None, ,467.657225042698,None,467.657225042698,None,down,1.473209009738639,467.657225042698,None,469.17209081875626,None,4,2.426494352752343,469.17209081875626,None,,,,,,,,,,,,,,,,,,,,,,,,,,,905303,2022_May_09_1547,palt,2021.1.2,54.00755179326402,
9,szilva,kecske,,,,,,,,,0,0,0,0,,,,,0,5,5,8,,,,,,,,,471.62550398521125,None,,,,,,,,,,,szilva,472.6470762947574,None,4,5.038227614131756,472.6470762947574,None,472.6470762947574,None,472.6470762947574,None, kecske,477.7080527540529,None,477.7080527540529,None,down,2.510298030800186,477.7080527540529,None,480.24919387244154,None,4,1.6020696827908978,480.24919387244154,None,,,,,,,,,,,,,,,,,,,,,,,,,,,905303,2022_May_09_1547,palt,2021.1.2,54.00755179326402,
6,menta,triatlon,,,,,,,,,0,0,0,0,,,,,0,6,6,5,,,,,,,,,481.8854627085384,None,,,,,,,,,,,triatlon,482.8918666332029,None,4,11.19823553855531,482.8918666332029,None,482.8918666332029,None,482.8918666332029,None, ,494.1352919662604,None,494.1352919662604,None,down,1.4268224640982226,494.1352919662604,None,495.6045987836551,None,4,3.5074781393632293,495.6045987836551,None,,,,,,,,,,,,,,,,,,,,,,,,,,,905303,2022_May_09_1547,palt,2021.1.2,54.00755179326402,
10,málna,dominó,,,,,,,,,0,0,0,0,,,,,0,7,7,9,,,,,,,,,499.14676715480164,None,,,,,,,,,,,dominó,500.1639346862212,None,None,,500.1639346862212,None,500.1639346862212,None,500.1639346862212,None, ,515.1514558813069,None,515.1514558813069,None,down,1.8185112018836662,515.1514558813069,None,516.9927274355432,None,4,2.5331320917466655,516.9927274355432,None,,,,,,,,,,,,,,,,,,,,,,,,,,,905303,2022_May_09_1547,palt,2021.1.2,54.00755179326402,
2,kötény,tisztás,,,,,,,,,0,0,0,0,,,,,0,8,8,1,,,,,,,,,519.5587039384991,None,,,,,,,,,,,tisztás,520.578795548412,None,4,9.95271558011882,520.578795548412,None,520.578795548412,None,520.578795548412,None, ,530.5732686606934,None,530.5732686606934,None,down,1.2923388024792075,530.5732686606934,None,531.8922441944014,None,4,4.008464028476737,531.8922441944014,None,,,,,,,,,,,,,,,,,,,,,,,,,,,905303,2022_May_09_1547,palt,2021.1.2,54.00755179326402,
4,mocsár,ananász,,,,,,,,,0,0,0,0,,,,,0,9,9,3,,,,,,,,,535.9286813469371,None,,,,,,,,,,,mocsár,536.9461894300766,None,4,9.050115507678129,536.9461894300766,None,536.9461894300766,None,536.9461894300766,None, ,546.0413389181485,None,546.0413389181485,None,down,1.3600071780383587,546.0413389181485,None,547.4392222735332,None,4,37.661932118586265,547.4392222735332,None,,,,,,,,,,,,,,,,,,,,,,,,,,,905303,2022_May_09_1547,palt,2021.1.2,54.00755179326402,
,,,,,,,,,,,0,0,0,0,,,,,,,,,,,,,,,,,,,,,,,,,,,,,,,,,,,,,,,,,,,,,,,,,,,,,,,,,,,,,,,,,,,,,,,,,,,4,8.323764715227298,585.1639365522424,None,585.1639365522424,None,905303,2022_May_09_1547,palt,2021.1.2,54.00755179326402,
8,szalvéta,puska,,,,,,,,,1,0,1,0,0,0,0,7,,,,,,,,,,,,,597.5519454670139,None,598.5434021319961,None,598.5434021319961,None,,,,,,,,,,,,,,,,,,,,,,,,,,,,,,,,,,,,,,,593.5303852866637,None,,,,,,,,,,,,,,,,,,,905303,2022_May_09_1547,palt,2021.1.2,54.00755179326402,
5,karton,hentes,,,,,,,,,1,0,1,0,0,1,1,4,,,,,,,,,,,,,604.5333230494289,None,605.5442573985783,None,605.5442573985783,None,,,,,,,,,,,,,,,,,,,,,,,,,,,,,,,,,,,,,,,,,,,,,,,,,,,,,,,,,,,905303,2022_May_09_1547,palt,2021.1.2,54.00755179326402,
7,csavarhúzó,hering,,,,,,,,,1,0,1,0,0,2,2,6,,,,,,,,,,,,,611.5297343510902,None,612.5476495410549,None,612.5476495410549,None,,,,,,,,,,,,,,,,,,,,,,,,,,,,,,,,,,,,,,,,,,,,,,,,,,,,,,,,,,,905303,2022_May_09_1547,palt,2021.1.2,54.00755179326402,
2,kötény,tisztás,,,,,,,,,1,0,1,0,0,3,3,1,,,,,,,,,,,,,618.5317092392361,None,619.550144742243,None,619.550144742243,None,,,,,,,,,,,,,,,,,,,,,,,,,,,,,,,,,,,,,,,,,,,,,,,,,,,,,,,,,,,905303,2022_May_09_1547,palt,2021.1.2,54.00755179326402,
1,bagoly,kirakó,,,,,,,,,1,0,1,0,0,4,4,0,,,,,,,,,,,,,625.5297660736833,None,626.5419783465331,None,626.5419783465331,None,,,,,,,,,,,,,,,,,,,,,,,,,,,,,,,,,,,,,,,,,,,,,,,,,,,,,,,,,,,905303,2022_May_09_1547,palt,2021.1.2,54.00755179326402,
3,fogó,limonádé,,,,,,,,,1,0,1,0,0,5,5,2,,,,,,,,,,,,,632.5415640865685,None,633.5439299092395,None,633.5439299092395,None,,,,,,,,,,,,,,,,,,,,,,,,,,,,,,,,,,,,,,,,,,,,,,,,,,,,,,,,,,,905303,2022_May_09_1547,palt,2021.1.2,54.00755179326402,
10,málna,dominó,,,,,,,,,1,0,1,0,0,6,6,9,,,,,,,,,,,,,639.5314971331973,None,640.5446505100699,None,640.5446505100699,None,,,,,,,,,,,,,,,,,,,,,,,,,,,,,,,,,,,,,,,,,,,,,,,,,,,,,,,,,,,905303,2022_May_09_1547,palt,2021.1.2,54.00755179326402,
6,menta,triatlon,,,,,,,,,1,0,1,0,0,7,7,5,,,,,,,,,,,,,646.5304350476945,None,647.545831088908,None,647.545831088908,None,,,,,,,,,,,,,,,,,,,,,,,,,,,,,,,,,,,,,,,,,,,,,,,,,,,,,,,,,,,905303,2022_May_09_1547,palt,2021.1.2,54.00755179326402,
9,szilva,kecske,,,,,,,,,1,0,1,0,0,8,8,8,,,,,,,,,,,,,653.5458559694234,None,654.5495777782053,None,654.5495777782053,None,,,,,,,,,,,,,,,,,,,,,,,,,,,,,,,,,,,,,,,,,,,,,,,,,,,,,,,,,,,905303,2022_May_09_1547,palt,2021.1.2,54.00755179326402,
4,mocsár,ananász,,,,,,,,,1,0,1,0,0,9,9,3,,,,,,,,,,,,,660.5329240286956,None,661.5516235757386,None,661.5516235757386,None,,,,,,,,,,,,,,,,,,,,,,,,,,,,,,,,,,,,,,,,,,,,,,,,,,,,,,,,,,,905303,2022_May_09_1547,palt,2021.1.2,54.00755179326402,
2,kötény,tisztás,,,,,,,,,1,0,1,0,,,,,0,0,0,1,,,,,,,,,681.4339995497139,None,,,,,,,,,,,tisztás,682.451626125956,None,4,4.290003458387218,682.451626125956,None,682.451626125956,None,682.451626125956,None, kötény,686.7795399723109,None,686.7795399723109,None,down,3.8998719276860356,686.7795399723109,None,690.7334093846148,None,4,4.005043273442425,690.7334093846148,None,,,,,,,677.4218550762162,None,667.5442651737249,None,u,2.9595200803596526,667.5442651737249,None,670.5481555478182,None,4,6.839427288738079,670.5481555478182,None,,,,,,,905303,2022_May_09_1547,palt,2021.1.2,54.00755179326402,
5,karton,hentes,,,,,,,,,1,0,1,0,,,,,0,1,1,4,,,,,,,,,694.7659185313387,None,,,,,,,,,,,hentes,695.7936201472767,None,4,7.92875163431745,695.7936201472767,None,695.7936201472767,None,695.7936201472767,None, kirakó,703.7643184054177,None,703.7643184054177,None,down,2.8350091374013573,703.7643184054177,None,706.6386822427157,None,4,4.823555408162065,706.6386822427157,None,,,,,,,,,,,,,,,,,,,,,,,,,,,905303,2022_May_09_1547,palt,2021.1.2,54.00755179326402,
4,mocsár,ananász,,,,,,,,,1,0,1,0,,,,,0,2,2,3,,,,,,,,,711.488256102195,None,,,,,,,,,,,mocsár,712.5156930519734,None,4,3.527768482104875,712.5156930519734,None,712.5156930519734,None,712.5156930519734,None, ananász,716.0794918908505,None,716.0794918908505,None,down,2.983681203913875,716.0794918908505,None,719.1091802130686,None,4,1.4839828797848895,719.1091802130686,None,,,,,,,,,,,,,,,,,,,,,,,,,,,905303,2022_May_09_1547,palt,2021.1.2,54.00755179326402,
1,bagoly,kirakó,,,,,,,,,1,0,1,0,,,,,0,3,3,0,,,,,,,,,720.6153039212804,None,,,,,,,,,,,kirakó,721.6433442226844,None,4,5.008711900212802,721.6433442226844,None,721.6433442226844,None,721.6433442226844,None, bagoly,726.6863314727088,None,726.6863314727088,None,down,3.176690597552806,726.6863314727088,None,729.893605467747,None,4,2.0533897788263857,729.893605467747,None,,,,,,,,,,,,,,,,,,,,,,,,,,,905303,2022_May_09_1547,palt,2021.1.2,54.00755179326402,
10,málna,dominó,,,,,,,,,1,0,1,0,,,,,0,4,4,9,,,,,,,,,731.9666315437062,None,,,,,,,,,,,dominó,732.980419994914,None,4,4.376664348645136,732.980419994914,None,732.980419994914,None,732.980419994914,None, málna,737.3905109580373,None,737.3905109580373,None,down,3.016472744056955,737.3905109580373,None,740.434503690456,None,4,0.6813553766114637,740.434503690456,None,,,,,,,,,,,,,,,,,,,,,,,,,,,905303,2022_May_09_1547,palt,2021.1.2,54.00755179326402,
6,menta,triatlon,,,,,,,,,1,0,1,0,,,,,0,5,5,5,,,,,,,,,741.1516524370527,None,,,,,,,,,,,triatlon,742.1720279955771,None,None,,742.1720279955771,None,742.1720279955771,None,742.1720279955771,None, ,757.1577661931515,None,757.1577661931515,None,down,1.2649108719779179,757.1577661931515,None,758.4681417888496,None,4,1.6523590427823365,758.4681417888496,None,,,,,,,,,,,,,,,,,,,,,,,,,,,905303,2022_May_09_1547,palt,2021.1.2,54.00755179326402,
9,szilva,kecske,,,,,,,,,1,0,1,0,,,,,0,6,6,8,,,,,,,,,760.1611866372405,None,,,,,,,,,,,szilva,761.1782729960978,None,4,3.837231586338021,761.1782729960978,None,761.1782729960978,None,761.1782729960978,None, kecske,765.0524427655619,None,765.0524427655619,None,down,2.3464448280865327,765.0524427655619,None,767.4409900316969,None,4,1.3574149429332465,767.4409900316969,None,,,,,,,,,,,,,,,,,,,,,,,,,,,905303,2022_May_09_1547,palt,2021.1.2,54.00755179326402,
7,csavarhúzó,hering,,,,,,,,,1,0,1,0,,,,,0,7,7,6,,,,,,,,,768.8194305355428,None,,,,,,,,,,,hering,769.8487705310108,None,None,,769.8487705310108,None,769.8487705310108,None,769.8487705310108,None, ,784.8450194876641,None,784.8450194876641,None,down,2.4092748833354563,784.8450194876641,None,787.3007795054,None,4,3.594451590673998,787.3007795054,None,,,,,,,,,,,,,,,,,,,,,,,,,,,905303,2022_May_09_1547,palt,2021.1.2,54.00755179326402,
8,szalvéta,puska,,,,,,,,,1,0,1,0,,,,,0,8,8,7,,,,,,,,,790.914573181537,None,,,,,,,,,,,szalvéta,791.9423379317159,None,None,,791.9423379317159,None,791.9423379317159,None,791.9423379317159,None, ,806.9275990460301,None,806.9275990460301,None,down,1.590719518600963,806.9275990460301,None,808.556124454597,None,4,3.0268634546082467,808.556124454597,None,,,,,,,,,,,,,,,,,,,,,,,,,,,905303,2022_May_09_1547,palt,2021.1.2,54.00755179326402,
3,fogó,limonádé,,,,,,,,,1,0,1,0,,,,,0,9,9,2,,,,,,,,,811.6192017595749,None,,,,,,,,,,,limonádé,812.6328459039796,None,4,14.803971360088326,812.6328459039796,None,812.6328459039796,None,812.6328459039796,None, ,827.4690897351829,None,827.4690897351829,None,down,1.2406788390362635,827.4690897351829,None,828.7414348946186,None,4,3.0484973434358835,828.7414348946186,None,,,,,,,,,,,,,,,,,,,,,,,,,,,905303,2022_May_09_1547,palt,2021.1.2,54.00755179326402,
,,,,,,,,,,,1,0,1,0,,,,,,,,,,,,,,,,,,,,,,,,,,,,,,,,,,,,,,,,,,,,,,,,,,,,,,,,,,,,,,,,,,,,,,,,,,,4,9.997814560774714,831.8528049009619,None,831.8528049009619,None,905303,2022_May_09_1547,palt,2021.1.2,54.00755179326402,
1,bagoly,kirakó,,,,,,,,,2,0,2,0,0,0,0,0,,,,,,,,,,,,,845.8967935902765,None,846.8967948342906,None,846.8967948342906,None,,,,,,,,,,,,,,,,,,,,,,,,,,,,,,,,,,,,,,,841.8786367487628,None,,,,,,,,,,,,,,,,,,,905303,2022_May_09_1547,palt,2021.1.2,54.00755179326402,
8,szalvéta,puska,,,,,,,,,2,0,2,0,0,1,1,7,,,,,,,,,,,,,852.876407457632,None,853.8847822273383,None,853.8847822273383,None,,,,,,,,,,,,,,,,,,,,,,,,,,,,,,,,,,,,,,,,,,,,,,,,,,,,,,,,,,,905303,2022_May_09_1547,palt,2021.1.2,54.00755179326402,
7,csavarhúzó,hering,,,,,,,,,2,0,2,0,0,2,2,6,,,,,,,,,,,,,859.8780999523588,None,860.8871020211373,None,860.8871020211373,None,,,,,,,,,,,,,,,,,,,,,,,,,,,,,,,,,,,,,,,,,,,,,,,,,,,,,,,,,,,905303,2022_May_09_1547,palt,2021.1.2,54.00755179326402,
4,mocsár,ananász,,,,,,,,,2,0,2,0,0,3,3,3,,,,,,,,,,,,,866.8811241748044,None,867.8991024988936,None,867.8991024988936,None,,,,,,,,,,,,,,,,,,,,,,,,,,,,,,,,,,,,,,,,,,,,,,,,,,,,,,,,,,,905303,2022_May_09_1547,palt,2021.1.2,54.00755179326402,
5,karton,hentes,,,,,,,,,2,0,2,0,0,4,4,4,,,,,,,,,,,,,873.8780156697612,None,874.8987047221744,None,874.8987047221744,None,,,,,,,,,,,,,,,,,,,,,,,,,,,,,,,,,,,,,,,,,,,,,,,,,,,,,,,,,,,905303,2022_May_09_1547,palt,2021.1.2,54.00755179326402,
10,málna,dominó,,,,,,,,,2,0,2,0,0,5,5,9,,,,,,,,,,,,,880.8883056143532,None,881.8976221103221,None,881.8976221103221,None,,,,,,,,,,,,,,,,,,,,,,,,,,,,,,,,,,,,,,,,,,,,,,,,,,,,,,,,,,,905303,2022_May_09_1547,palt,2021.1.2,54.00755179326402,
9,szilva,kecske,,,,,,,,,2,0,2,0,0,6,6,8,,,,,,,,,,,,,887.8763042036444,None,888.8952786800219,None,888.8952786800219,None,,,,,,,,,,,,,,,,,,,,,,,,,,,,,,,,,,,,,,,,,,,,,,,,,,,,,,,,,,,905303,2022_May_09_1547,palt,2021.1.2,54.00755179326402,
2,kötény,tisztás,,,,,,,,,2,0,2,0,0,7,7,1,,,,,,,,,,,,,894.8806172349723,None,895.8986478081206,None,895.8986478081206,None,,,,,,,,,,,,,,,,,,,,,,,,,,,,,,,,,,,,,,,,,,,,,,,,,,,,,,,,,,,905303,2022_May_09_1547,palt,2021.1.2,54.00755179326402,
6,menta,triatlon,,,,,,,,,2,0,2,0,0,8,8,5,,,,,,,,,,,,,901.8787726582959,None,902.8915814406937,None,902.8915814406937,None,,,,,,,,,,,,,,,,,,,,,,,,,,,,,,,,,,,,,,,,,,,,,,,,,,,,,,,,,,,905303,2022_May_09_1547,palt,2021.1.2,54.00755179326402,
3,fogó,limonádé,,,,,,,,,2,0,2,0,0,9,9,2,,,,,,,,,,,,,908.8793290480971,None,909.8901405498618,None,909.8901405498618,None,,,,,,,,,,,,,,,,,,,,,,,,,,,,,,,,,,,,,,,,,,,,,,,,,,,,,,,,,,,905303,2022_May_09_1547,palt,2021.1.2,54.00755179326402,
8,szalvéta,puska,,,,,,,,,2,0,2,0,,,,,0,0,0,7,,,,,,,,,925.013384454418,None,,,,,,,,,,,szalvéta,926.0127664854517,None,4,3.5758649387862533,926.0127664854517,None,926.0127664854517,None,926.0127664854517,None, puska,929.6380188668845,None,929.6380188668845,None,down,2.7822065377840772,929.6380188668845,None,932.4681467650225,None,4,2.1340252386871725,932.4681467650225,None,,,,,,,920.9865219327621,None,915.8757845126092,None,u,2.6888826549984515,915.8757845126092,None,918.5854610290844,None,4,2.3700461408589035,918.5854610290844,None,,,,,,,905303,2022_May_09_1547,palt,2021.1.2,54.00755179326402,
7,csavarhúzó,hering,,,,,,,,,2,0,2,0,,,,,0,1,1,6,,,,,,,,,934.6368871160084,None,,,,,,,,,,,hering,935.6577851645416,None,4,3.165520505863242,935.6577851645416,None,935.6577851645416,None,935.6577851645416,None, csavarhúzó,938.8567832898116,None,938.8567832898116,None,down,3.211391714634374,938.8567832898116,None,942.0942926666467,None,4,1.540192550048232,942.0942926666467,None,,,,,,,,,,,,,,,,,,,,,,,,,,,905303,2022_May_09_1547,palt,2021.1.2,54.00755179326402,
1,bagoly,kirakó,,,,,,,,,2,0,2,0,,,,,0,2,2,0,,,,,,,,,943.6630439650035,None,,,,,,,,,,,kirakó,944.6780717752408,None,4,3.894059847574681,944.6780717752408,None,944.6780717752408,None,944.6780717752408,None, bagoly,948.6014865464531,None,948.6014865464531,None,down,2.8106222234200686,948.6014865464531,None,951.4442335133208,None,4,0.8680236688815057,951.4442335133208,None,,,,,,,,,,,,,,,,,,,,,,,,,,,905303,2022_May_09_1547,palt,2021.1.2,54.00755179326402,
9,szilva,kecske,,,,,,,,,2,0,2,0,,,,,0,3,3,8,,,,,,,,,952.3342975556152,None,,,,,,,,,,,szilva,953.3569142232882,None,4,2.526126370416023,953.3569142232882,None,953.3569142232882,None,953.3569142232882,None, kecske,955.9196528426837,None,955.9196528426837,None,down,2.068279813393019,955.9196528426837,None,958.0291689422447,None,4,1.2658056361833587,958.0291689422447,None,,,,,,,,,,,,,,,,,,,,,,,,,,,905303,2022_May_09_1547,palt,2021.1.2,54.00755179326402,
4,mocsár,ananász,,,,,,,,,2,0,2,0,,,,,0,4,4,3,,,,,,,,,959.3377086694818,None,,,,,,,,,,,mocsár,960.3572168321116,None,4,3.4940153114730492,960.3572168321116,None,960.3572168321116,None,960.3572168321116,None, ananász,963.8918629010441,None,963.8918629010441,None,down,3.3442211352521554,963.8918629010441,None,967.264138021972,None,4,0.902715144562535,967.264138021972,None,,,,,,,,,,,,,,,,,,,,,,,,,,,905303,2022_May_09_1547,palt,2021.1.2,54.00755179326402,
6,menta,triatlon,,,,,,,,,2,0,2,0,,,,,0,5,5,5,,,,,,,,,968.1901005544933,None,,,,,,,,,,,triatlon,969.2099505127408,None,4,5.208977685892023,969.2099505127408,None,969.2099505127408,None,969.2099505127408,None, menta,974.449595256825,None,974.449595256825,None,down,2.546135874814354,974.449595256825,None,977.0256788327824,None,4,0.468071190523915,977.0256788327824,None,,,,,,,,,,,,,,,,,,,,,,,,,,,905303,2022_May_09_1547,palt,2021.1.2,54.00755179326402,
10,málna,dominó,,,,,,,,,2,0,2,0,,,,,0,6,6,9,,,,,,,,,977.5118465297855,None,,,,,,,,,,,dominó,978.5409277682193,None,4,6.564748340169899,978.5409277682193,None,978.5409277682193,None,978.5409277682193,None, málna,985.1318814744009,None,985.1318814744009,None,down,2.2797147578094155,985.1318814744009,None,987.4416415892774,None,4,0.802899633301422,987.4416415892774,None,,,,,,,,,,,,,,,,,,,,,,,,,,,905303,2022_May_09_1547,palt,2021.1.2,54.00755179326402,
3,fogó,limonádé,,,,,,,,,2,0,2,0,,,,,0,7,7,2,,,,,,,,,988.2790569800418,None,,,,,,,,,,,limonádé,989.3079534809804,None,4,8.163553392863832,989.3079534809804,None,989.3079534809804,None,989.3079534809804,None, fogó,997.5117625581333,None,997.5117625581333,None,down,2.332031565834768,997.5117625581333,None,999.8827065733494,None,4,1.5967751166317612,999.8827065733494,None,,,,,,,,,,,,,,,,,,,,,,,,,,,905303,2022_May_09_1547,palt,2021.1.2,54.00755179326402,
2,kötény,tisztás,,,,,,,,,2,0,2,0,,,,,0,8,8,1,,,,,,,,,1001.5029144373257,None,,,,,,,,,,,tisztás,1002.5208697469207,None,4,4.937481572967954,1002.5208697469207,None,1002.5208697469207,None,1002.5208697469207,None, karton,1007.495155148441,None,1007.495155148441,None,down,3.7720832923660055,1007.495155148441,None,1011.2958600124111,None,4,1.4844649389851838,1011.2958600124111,None,,,,,,,,,,,,,,,,,,,,,,,,,,,905303,2022_May_09_1547,palt,2021.1.2,54.00755179326402,
5,karton,hentes,,,,,,,,,2,0,2,0,,,,,0,9,9,4,,,,,,,,,1012.8078141502338,None,,,,,,,,,,,hentes,1013.8189901510486,None,4,4.151165712741204,1013.8189901510486,None,1013.8189901510486,None,1013.8189901510486,None, karton,1017.9947732330766,None,1017.9947732330766,None,down,2.4883627773961052,1017.9947732330766,None,1020.5359902369091,None,4,1.2432489927159622,1020.5359902369091,None,,,,,,,,,,,,,,,,,,,,,,,,,,,905303,2022_May_09_1547,palt,2021.1.2,54.00755179326402,
,,,,,,,,,,,2,0,2,0,,,,,,,,,,,,,,,,,,,,,,,,,,,,,,,,,,,,,,,,,,,,,,,,,,,,,,,,,,,,,,,,,,,,,,,,,,,4,20.376022121170536,1021.8281166222878,None,1021.8281166222878,None,905303,2022_May_09_1547,palt,2021.1.2,54.00755179326402,
2,kötény,tisztás,,,,,,,,,3,0,3,0,0,0,0,1,,,,,,,,,,,,,1046.2634407464648,None,1047.2500363877043,None,1047.2500363877043,None,,,,,,,,,,,,,,,,,,,,,,,,,,,,,,,,,,,,,,,1042.2411646303954,None,,,,,,,,,,,,,,,,,,,905303,2022_May_09_1547,palt,2021.1.2,54.00755179326402,
4,mocsár,ananász,,,,,,,,,3,0,3,0,0,1,1,3,,,,,,,,,,,,,1053.2424649464665,None,1054.2610733688343,None,1054.2610733688343,None,,,,,,,,,,,,,,,,,,,,,,,,,,,,,,,,,,,,,,,,,,,,,,,,,,,,,,,,,,,905303,2022_May_09_1547,palt,2021.1.2,54.00755179326402,
1,bagoly,kirakó,,,,,,,,,3,0,3,0,0,2,2,0,,,,,,,,,,,,,1060.2428602351574,None,1061.2555016962579,None,1061.2555016962579,None,,,,,,,,,,,,,,,,,,,,,,,,,,,,,,,,,,,,,,,,,,,,,,,,,,,,,,,,,,,905303,2022_May_09_1547,palt,2021.1.2,54.00755179326402,
10,málna,dominó,,,,,,,,,3,0,3,0,0,3,3,9,,,,,,,,,,,,,1067.2426705214893,None,1068.2611784888431,None,1068.2611784888431,None,,,,,,,,,,,,,,,,,,,,,,,,,,,,,,,,,,,,,,,,,,,,,,,,,,,,,,,,,,,905303,2022_May_09_1547,palt,2021.1.2,54.00755179326402,
9,szilva,kecske,,,,,,,,,3,0,3,0,0,4,4,8,,,,,,,,,,,,,1074.243119303137,None,1075.2609626506455,None,1075.2609626506455,None,,,,,,,,,,,,,,,,,,,,,,,,,,,,,,,,,,,,,,,,,,,,,,,,,,,,,,,,,,,905303,2022_May_09_1547,palt,2021.1.2,54.00755179326402,
5,karton,hentes,,,,,,,,,3,0,3,0,0,5,5,4,,,,,,,,,,,,,1081.2400829514954,None,1082.2780549187446,None,1082.2780549187446,None,,,,,,,,,,,,,,,,,,,,,,,,,,,,,,,,,,,,,,,,,,,,,,,,,,,,,,,,,,,905303,2022_May_09_1547,palt,2021.1.2,54.00755179326402,
6,menta,triatlon,,,,,,,,,3,0,3,0,0,6,6,5,,,,,,,,,,,,,1088.2424559273059,None,1089.2633888084674,None,1089.2633888084674,None,,,,,,,,,,,,,,,,,,,,,,,,,,,,,,,,,,,,,,,,,,,,,,,,,,,,,,,,,,,905303,2022_May_09_1547,palt,2021.1.2,54.00755179326402,
3,fogó,limonádé,,,,,,,,,3,0,3,0,0,7,7,2,,,,,,,,,,,,,1095.2416242973413,None,1096.2484981520101,None,1096.2484981520101,None,,,,,,,,,,,,,,,,,,,,,,,,,,,,,,,,,,,,,,,,,,,,,,,,,,,,,,,,,,,905303,2022_May_09_1547,palt,2021.1.2,54.00755179326402,
7,csavarhúzó,hering,,,,,,,,,3,0,3,0,0,8,8,6,,,,,,,,,,,,,1102.2358853034675,None,1103.2565793320537,None,1103.2565793320537,None,,,,,,,,,,,,,,,,,,,,,,,,,,,,,,,,,,,,,,,,,,,,,,,,,,,,,,,,,,,905303,2022_May_09_1547,palt,2021.1.2,54.00755179326402,
8,szalvéta,puska,,,,,,,,,3,0,3,0,0,9,9,7,,,,,,,,,,,,,1109.234937668196,None,1110.2534683389822,None,1110.2534683389822,None,,,,,,,,,,,,,,,,,,,,,,,,,,,,,,,,,,,,,,,,,,,,,,,,,,,,,,,,,,,905303,2022_May_09_1547,palt,2021.1.2,54.00755179326402,
10,málna,dominó,,,,,,,,,3,0,3,0,,,,,0,0,0,9,,,,,,,,,1124.9928182493895,None,,,,,,,,,,,dominó,1125.993733540061,None,4,14.381878364365548,1125.993733540061,None,1125.993733540061,None,1125.993733540061,None, málna,1140.434064549976,None,1140.434064549976,None,down,2.895595284178853,1140.434064549976,None,1143.3628743423615,None,4,1.2369452118873596,1143.3628743423615,None,,,,,,,1120.9739336536732,None,1116.2439587083645,None,u,2.013983451994136,1116.2439587083645,None,1118.28583380091,None,4,2.656002167146653,1118.28583380091,None,,,,,,,905303,2022_May_09_1547,palt,2021.1.2,54.00755179326402,
1,bagoly,kirakó,,,,,,,,,3,0,3,0,,,,,0,1,1,0,,,,,,,,,1144.6375119270524,None,,,,,,,,,,,kirakó,1145.6525723928353,None,4,2.1029520068550482,1145.6525723928353,None,1145.6525723928353,None,1145.6525723928353,None, bagoly,1147.7899213527562,None,1147.7899213527562,None,down,2.307583072804846,1147.7899213527562,None,1150.1312616394134,None,4,0.4995017683831975,1150.1312616394134,None,,,,,,,,,,,,,,,,,,,,,,,,,,,905303,2022_May_09_1547,palt,2021.1.2,54.00755179326402,
2,kötény,tisztás,,,,,,,,,3,0,3,0,,,,,0,2,2,1,,,,,,,,,1150.6652894284343,None,,,,,,,,,,,tisztás,1151.6876398749882,None,4,7.053734062472358,1151.6876398749882,None,1151.6876398749882,None,1151.6876398749882,None, kötény,1158.7984366972232,None,1158.7984366972232,None,down,2.6909076150041074,1158.7984366972232,None,1161.5176791363629,None,4,0.851632097386755,1161.5176791363629,None,,,,,,,,,,,,,,,,,,,,,,,,,,,905303,2022_May_09_1547,palt,2021.1.2,54.00755179326402,
7,csavarhúzó,hering,,,,,,,,,3,0,3,0,,,,,0,3,3,6,,,,,,,,,1162.398405534448,None,,,,,,,,,,,hering,1163.4272099775262,None,4,2.3650582266272977,1163.4272099775262,None,1163.4272099775262,None,1163.4272099775262,None, csavarhúzó,1165.8509466401301,None,1165.8509466401301,None,down,3.4622062392299995,1165.8509466401301,None,1169.3484816064592,None,4,0.9199989923508838,1169.3484816064592,None,,,,,,,,,,,,,,,,,,,,,,,,,,,905303,2022_May_09_1547,palt,2021.1.2,54.00755179326402,
5,karton,hentes,,,,,,,,,3,0,3,0,,,,,0,4,4,4,,,,,,,,,1170.3007260124432,None,,,,,,,,,,,hentes,1171.321958081331,None,4,4.459173619747162,1171.321958081331,None,1171.321958081331,None,1171.321958081331,None, karton,1175.8295879916986,None,1175.8295879916986,None,down,2.427896056789905,1175.8295879916986,None,1178.2927804309875,None,4,0.847461195779033,1178.2927804309875,None,,,,,,,,,,,,,,,,,,,,,,,,,,,905303,2022_May_09_1547,palt,2021.1.2,54.00755179326402,
9,szilva,kecske,,,,,,,,,3,0,3,0,,,,,0,5,5,8,,,,,,,,,1179.1618419268634,None,,,,,,,,,,,szilva,1180.1761416719528,None,4,1.8339209273690358,1180.1761416719528,None,1180.1761416719528,None,1180.1761416719528,None, kecske,1182.0603286338737,None,1182.0603286338737,None,down,2.4687028436455876,1182.0603286338737,None,1184.5591682704398,None,4,0.5218665212159976,1184.5591682704398,None,,,,,,,,,,,,,,,,,,,,,,,,,,,905303,2022_May_09_1547,palt,2021.1.2,54.00755179326402,
6,menta,triatlon,,,,,,,,,3,0,3,0,,,,,0,6,6,5,,,,,,,,,1185.113373507047,None,,,,,,,,,,,triatlon,1186.130704938667,None,4,6.439222584478557,1186.130704938667,None,1186.130704938667,None,1186.130704938667,None, menta,1192.5993406050839,None,1192.5993406050839,None,down,2.1377980526303872,1192.5993406050839,None,1194.772819132544,None,4,0.5149917334783822,1194.772819132544,None,,,,,,,,,,,,,,,,,,,,,,,,,,,905303,2022_May_09_1547,palt,2021.1.2,54.00755179326402,
4,mocsár,ananász,,,,,,,,,3,0,3,0,,,,,0,7,7,3,,,,,,,,,1195.310638706782,None,,,,,,,,,,,mocsár,1196.325880800141,None,4,2.6099620821187273,1196.325880800141,None,1196.325880800141,None,1196.325880800141,None, ananász,1198.9698221543804,None,1198.9698221543804,None,down,3.030962824821472,1198.9698221543804,None,1202.028177144006,None,4,0.4625903316773474,1202.028177144006,None,,,,,,,,,,,,,,,,,,,,,,,,,,,905303,2022_May_09_1547,palt,2021.1.2,54.00755179326402,
3,fogó,limonádé,,,,,,,,,3,0,3,0,,,,,0,8,8,2,,,,,,,,,1202.5309877053369,None,,,,,,,,,,,limonádé,1203.5516835999442,None,4,3.927324738819152,1203.5516835999442,None,1203.5516835999442,None,1203.5516835999442,None, fogó,1207.5172539911,None,1207.5172539911,None,down,2.131791282678023,1207.5172539911,None,1209.6772855520248,None,4,0.5073991438839585,1209.6772855520248,None,,,,,,,,,,,,,,,,,,,,,,,,,,,905303,2022_May_09_1547,palt,2021.1.2,54.00755179326402,
8,szalvéta,puska,,,,,,,,,3,0,3,0,,,,,0,9,9,7,,,,,,,,,1210.2104434572393,None,,,,,,,,,,,szalvéta,1211.2203452663962,None,None,,1211.2203452663962,None,1211.2203452663962,None,1211.2203452663962,None, ,1226.2353649904253,None,1226.2353649904253,None,down,1.509120873059146,1226.2353649904253,None,1227.7763633569703,None,4,3.040353029151447,1227.7763633569703,None,,,,,,,,,,,,,,,,,,,,,,,,,,,905303,2022_May_09_1547,palt,2021.1.2,54.00755179326402,
