itemno,wordA,wordB,enc_gyak.thisRepN,enc_gyak.thisTrialN,enc_gyak.thisN,enc_gyak.thisIndex,rec_gyak.thisRepN,rec_gyak.thisTrialN,rec_gyak.thisN,rec_gyak.thisIndex,repeat_task.thisRepN,repeat_task.thisTrialN,repeat_task.thisN,repeat_task.thisIndex,enc_loop.thisRepN,enc_loop.thisTrialN,enc_loop.thisN,enc_loop.thisIndex,test_loop.thisRepN,test_loop.thisTrialN,test_loop.thisN,test_loop.thisIndex,int.started,int.stopped,int_key.keys,int_key.rt,int_key.started,int_key.stopped,prepare_gyak_text.started,prepare_gyak_text.stopped,fix.started,fix.stopped,word1.started,word1.stopped,word2.started,word2.stopped,gykrec_inst.started,gykrec_inst.stopped,gyakrec_inst.keys,gyakrec_inst.rt,gyakrec_inst.started,gyakrec_inst.stopped,cueword,cueword1.started,cueword1.stopped,cue_resp.keys,cue_resp.rt,cue_resp.started,cue_resp.stopped,cue_cont_text.started,cue_cont_text.stopped,cue_space.started,cue_space.stopped,test_ansbox.text,test_ansbox.started,test_ansbox.stopped,ans_text.started,ans_text.stopped,ans_continue.keys,ans_continue.rt,ans_continue.started,ans_continue.stopped,feedback_text.started,feedback_text.stopped,feedback_cont.keys,feedback_cont.rt,feedback_cont.started,feedback_cont.stopped,main_prep.started,main_prep.stopped,main_prep_resp.keys,main_prep_resp.rt,main_prep_resp.started,main_prep_resp.stopped,preparation.started,preparation.stopped,break_text.started,break_text.stopped,key_resp.keys,key_resp.rt,key_resp.started,key_resp.stopped,test_instruction.started,test_instruction.stopped,test_i_key.keys,test_i_key.rt,test_i_key.started,test_i_key.stopped,rep_routine.keys,rep_routine.rt,rep_routine.started,rep_routine.stopped,encrep_textbox.started,encrep_textbox.stopped,Résztvevő kódja,date,expName,psychopyVersion,frameRate,
,,,,,,,,,,,,,,,,,,,,,,,22.00394480745308,None,4,112.7474334181752,22.00394480745308,None,,,,,,,,,,,,,,,,,,,,,,,,,,,,,,,,,,,,,,,,,,,,,,,,,,,,,,,,,,,,,,,,,,,909877,2022_Jun_07_1609,palt,2021.1.2,52.07989749104232,
3,majoránna,szikla,0,0,0,2,,,,,,,,,,,,,,,,,,,,,,,134.7795212115161,None,137.81853823154233,None,138.82033802662045,None,138.82033802662045,None,,,,,,,,,,,,,,,,,,,,,,,,,,,,,,,,,,,,,,,,,,,,,,,,,,,,,,,,,,,909877,2022_Jun_07_1609,palt,2021.1.2,52.07989749104232,
2,lepke,szintetizátor,0,1,1,1,,,,,,,,,,,,,,,,,,,,,,,,,144.78319015610032,None,145.79845062736422,None,145.79845062736422,None,,,,,,,,,,,,,,,,,,,,,,,,,,,,,,,,,,,,,,,,,,,,,,,,,,,,,,,,,,,909877,2022_Jun_07_1609,palt,2021.1.2,52.07989749104232,
1,sapka,beton,0,2,2,0,,,,,,,,,,,,,,,,,,,,,,,,,151.78350427281111,None,152.8001558764372,None,152.8001558764372,None,,,,,,,,,,,,,,,,,,,,,,,,,,,,,,,,,,,,,,,,,,,,,,,,,,,,,,,,,,,909877,2022_Jun_07_1609,palt,2021.1.2,52.07989749104232,
4,kard,harcsa,0,3,3,3,,,,,,,,,,,,,,,,,,,,,,,,,158.79513902915642,None,159.79716368205845,None,159.79716368205845,None,,,,,,,,,,,,,,,,,,,,,,,,,,,,,,,,,,,,,,,,,,,,,,,,,,,,,,,,,,,909877,2022_Jun_07_1609,palt,2021.1.2,52.07989749104232,
,,,,,,,,,,,,,,,,,,,,,,,,,,,,,,,,,,,,,165.7951446273364,None,4,16.127705523977056,165.7951446273364,None,,,,,,,,,,,,,,,,,,,,,,,,,,,,,,,,,,,,,,,,,,,,,,,,,,,,,909877,2022_Jun_07_1609,palt,2021.1.2,52.07989749104232,
3,majoránna,szikla,,,,,0,0,0,2,,,,,,,,,,,,,,,,,,,,,181.98388985870406,None,,,,,,,,,,,majoránna,183.0028764999006,None,4,5.018903602147475,183.0028764999006,None,183.0028764999006,None,183.0028764999006,None,szikla,188.0858813582454,None,188.0858813582454,None,down,23.016976605402306,188.0858813582454,None,211.17012744420208,None,4,24.392260476714,211.17012744420208,None,,,,,,,,,,,,,,,,,,,,,,,,,,,909877,2022_Jun_07_1609,palt,2021.1.2,52.07989749104232,
2,lepke,szintetizátor,,,,,0,1,1,1,,,,,,,,,,,,,,,,,,,,,235.60201544687152,None,,,,,,,,,,,szintetizátor,236.62746356078424,None,4,6.062955508008599,236.62746356078424,None,236.62746356078424,None,236.62746356078424,None, ,242.73129279818386,None,242.73129279818386,None,down,1.9230361334048212,242.73129279818386,None,244.69279453717172,None,4,6.304569992935285,244.69279453717172,None,,,,,,,,,,,,,,,,,,,,,,,,,,,909877,2022_Jun_07_1609,palt,2021.1.2,52.07989749104232,
4,kard,harcsa,,,,,0,2,2,3,,,,,,,,,,,,,,,,,,,,,251.03796301875263,None,,,,,,,,,,,harcsa,252.06567183951847,None,4,9.044280184432864,252.06567183951847,None,252.06567183951847,None,252.06567183951847,None, kard,261.1415639773477,None,261.1415639773477,None,down,1.992302587023005,261.1415639773477,None,263.1634815444704,None,4,5.085454346379265,263.1634815444704,None,,,,,,,,,,,,,,,,,,,,,,,,,,,909877,2022_Jun_07_1609,palt,2021.1.2,52.07989749104232,
1,sapka,beton,,,,,0,3,3,0,,,,,,,,,,,,,,,,,,,,,268.27892843284644,None,,,,,,,,,,,beton,269.29495460214093,None,4,8.904677103506401,269.29495460214093,None,269.29495460214093,None,269.29495460214093,None, ,278.2366262502037,None,278.2366262502037,None,down,1.4571333401836455,278.2366262502037,None,279.72588688181713,None,4,43.38734035263769,279.72588688181713,None,,,,,,,,,,,,,,,,,,,,,,,,,,,909877,2022_Jun_07_1609,palt,2021.1.2,52.07989749104232,
,,,,,,,,,,,,,,,,,,,,,,,,,,,,,,,,,,,,,,,,,,,,,,,,,,,,,,,,,,,,,,,,,,,,,323.15739856660366,None,4,24.882610253524035,323.15739856660366,None,,,,,,,,,,,,,,,,,,,,,909877,2022_Jun_07_1609,palt,2021.1.2,52.07989749104232,
4,mocsár,ananász,,,,,,,,,0,0,0,0,0,0,0,3,,,,,,,,,,,,,352.10353440302424,None,353.0885149620008,None,353.0885149620008,None,,,,,,,,,,,,,,,,,,,,,,,,,,,,,,,,,,,,,,,348.0692216686439,None,,,,,,,,,,,,,,,,,,,909877,2022_Jun_07_1609,palt,2021.1.2,52.07989749104232,
3,fogó,limonádé,,,,,,,,,0,0,0,0,0,1,1,2,,,,,,,,,,,,,359.0775230564177,None,360.0882418982219,None,360.0882418982219,None,,,,,,,,,,,,,,,,,,,,,,,,,,,,,,,,,,,,,,,,,,,,,,,,,,,,,,,,,,,909877,2022_Jun_07_1609,palt,2021.1.2,52.07989749104232,
10,málna,dominó,,,,,,,,,0,0,0,0,0,2,2,9,,,,,,,,,,,,,366.0751426119823,None,367.0792681144085,None,367.0792681144085,None,,,,,,,,,,,,,,,,,,,,,,,,,,,,,,,,,,,,,,,,,,,,,,,,,,,,,,,,,,,909877,2022_Jun_07_1609,palt,2021.1.2,52.07989749104232,
7,csavarhúzó,hering,,,,,,,,,0,0,0,0,0,3,3,6,,,,,,,,,,,,,373.07314439467154,None,374.09330135351047,None,374.09330135351047,None,,,,,,,,,,,,,,,,,,,,,,,,,,,,,,,,,,,,,,,,,,,,,,,,,,,,,,,,,,,909877,2022_Jun_07_1609,palt,2021.1.2,52.07989749104232,
5,karton,hentes,,,,,,,,,0,0,0,0,0,4,4,4,,,,,,,,,,,,,380.08453252282925,None,381.09550545713864,None,381.09550545713864,None,,,,,,,,,,,,,,,,,,,,,,,,,,,,,,,,,,,,,,,,,,,,,,,,,,,,,,,,,,,909877,2022_Jun_07_1609,palt,2021.1.2,52.07989749104232,
6,menta,triatlon,,,,,,,,,0,0,0,0,0,5,5,5,,,,,,,,,,,,,387.0755920165684,None,388.0898274099454,None,388.0898274099454,None,,,,,,,,,,,,,,,,,,,,,,,,,,,,,,,,,,,,,,,,,,,,,,,,,,,,,,,,,,,909877,2022_Jun_07_1609,palt,2021.1.2,52.07989749104232,
9,szilva,kecske,,,,,,,,,0,0,0,0,0,6,6,8,,,,,,,,,,,,,394.073121069232,None,395.0882338122465,None,395.0882338122465,None,,,,,,,,,,,,,,,,,,,,,,,,,,,,,,,,,,,,,,,,,,,,,,,,,,,,,,,,,,,909877,2022_Jun_07_1609,palt,2021.1.2,52.07989749104232,
1,bagoly,kirakó,,,,,,,,,0,0,0,0,0,7,7,0,,,,,,,,,,,,,401.0870762455743,None,402.0899574107025,None,402.0899574107025,None,,,,,,,,,,,,,,,,,,,,,,,,,,,,,,,,,,,,,,,,,,,,,,,,,,,,,,,,,,,909877,2022_Jun_07_1609,palt,2021.1.2,52.07989749104232,
2,kötény,tisztás,,,,,,,,,0,0,0,0,0,8,8,1,,,,,,,,,,,,,408.0761956803035,None,409.08914039633237,None,409.08914039633237,None,,,,,,,,,,,,,,,,,,,,,,,,,,,,,,,,,,,,,,,,,,,,,,,,,,,,,,,,,,,909877,2022_Jun_07_1609,palt,2021.1.2,52.07989749104232,
8,szalvéta,puska,,,,,,,,,0,0,0,0,0,9,9,7,,,,,,,,,,,,,415.08056190167554,None,416.09713761974126,None,416.09713761974126,None,,,,,,,,,,,,,,,,,,,,,,,,,,,,,,,,,,,,,,,,,,,,,,,,,,,,,,,,,,,909877,2022_Jun_07_1609,palt,2021.1.2,52.07989749104232,
3,fogó,limonádé,,,,,,,,,0,0,0,0,,,,,0,0,0,2,,,,,,,,,441.2408425665926,None,,,,,,,,,,,fogó,442.2388421720825,None,4,5.972028067801148,442.2388421720825,None,442.2388421720825,None,442.2388421720825,None,,448.26254149596207,None,448.26254149596207,None,down,2.4532619304955006,448.26254149596207,None,450.7425509255845,None,4,7.426133136963472,450.7425509255845,None,,,,,,,437.2099869812373,None,422.07534787640907,None,u,1.825158939929679,422.07534787640907,None,423.95141921634786,None,4,13.227548590162769,423.95141921634786,None,,,,,,,909877,2022_Jun_07_1609,palt,2021.1.2,52.07989749104232,
6,menta,triatlon,,,,,,,,,0,0,0,0,,,,,0,1,1,5,,,,,,,,,458.19273606780916,None,,,,,,,,,,,triatlon,459.2162674481515,None,4,9.620355194434524,459.2162674481515,None,459.2162674481515,None,459.2162674481515,None, ,468.8694207749795,None,468.8694207749795,None,down,1.638047737069428,468.8694207749795,None,470.5457627528813,None,4,2.6978906912263483,470.5457627528813,None,,,,,,,,,,,,,,,,,,,,,,,,,,,909877,2022_Jun_07_1609,palt,2021.1.2,52.07989749104232,
10,málna,dominó,,,,,,,,,0,0,0,0,,,,,0,2,2,9,,,,,,,,,473.28083583619446,None,,,,,,,,,,,málna,474.3054672467988,None,4,3.3300128197297454,474.3054672467988,None,474.3054672467988,None,474.3054672467988,None, ,477.65913709346205,None,477.65913709346205,None,down,1.8243528108578175,477.65913709346205,None,479.511578775011,None,4,10.091757205780596,479.511578775011,None,,,,,,,,,,,,,,,,,,,,,,,,,,,909877,2022_Jun_07_1609,palt,2021.1.2,52.07989749104232,
9,szilva,kecske,,,,,,,,,0,0,0,0,,,,,0,3,3,8,,,,,,,,,489.6423841016367,None,,,,,,,,,,,kecske,490.67167656798847,None,4,7.022589341271669,490.67167656798847,None,490.67167656798847,None,490.67167656798847,None, szilva,497.73590595903806,None,497.73590595903806,None,down,2.8513400964438915,497.73590595903806,None,500.62033404572867,None,4,3.2168574277311563,500.62033404572867,None,,,,,,,,,,,,,,,,,,,,,,,,,,,909877,2022_Jun_07_1609,palt,2021.1.2,52.07989749104232,
1,bagoly,kirakó,,,,,,,,,0,0,0,0,,,,,0,4,4,0,,,,,,,,,503.8601381613407,None,,,,,,,,,,,kirakó,504.8759488032665,None,4,5.187243691645563,504.8759488032665,None,504.8759488032665,None,504.8759488032665,None, ,510.0906108354684,None,510.0906108354684,None,down,1.8884195452556014,510.0906108354684,None,512.0377580653876,None,4,9.181255881907418,512.0377580653876,None,,,,,,,,,,,,,,,,,,,,,,,,,,,909877,2022_Jun_07_1609,palt,2021.1.2,52.07989749104232,
2,kötény,tisztás,,,,,,,,,0,0,0,0,,,,,0,5,5,1,,,,,,,,,521.245458526304,None,,,,,,,,,,,tisztás,522.2746340539306,None,4,5.183334027882665,522.2746340539306,None,522.2746340539306,None,522.2746340539306,None, ,527.5028503751382,None,527.5028503751382,None,down,2.171983220614493,527.5028503751382,None,529.7196312954184,None,4,2.928152502514422,529.7196312954184,None,,,,,,,,,,,,,,,,,,,,,,,,,,,909877,2022_Jun_07_1609,palt,2021.1.2,52.07989749104232,
5,karton,hentes,,,,,,,,,0,0,0,0,,,,,0,6,6,4,,,,,,,,,532.6891722434666,None,,,,,,,,,,,karton,533.7088763767388,None,4,5.7449251499492675,533.7088763767388,None,533.7088763767388,None,533.7088763767388,None, harcsa,539.4900521433447,None,539.4900521433447,None,down,2.616714862175286,539.4900521433447,None,542.1390103022568,None,4,8.630994418635964,542.1390103022568,None,,,,,,,,,,,,,,,,,,,,,,,,,,,909877,2022_Jun_07_1609,palt,2021.1.2,52.07989749104232,
4,mocsár,ananász,,,,,,,,,0,0,0,0,,,,,0,7,7,3,,,,,,,,,550.8063128737267,None,,,,,,,,,,,ananász,551.8273711295333,None,4,4.8012238731607795,551.8273711295333,None,551.8273711295333,None,551.8273711295333,None, ,556.6652178941295,None,556.6652178941295,None,down,1.8253526971675456,556.6652178941295,None,558.5207957662642,None,4,2.9167438480071723,558.5207957662642,None,,,,,,,,,,,,,,,,,,,,,,,,,,,909877,2022_Jun_07_1609,palt,2021.1.2,52.07989749104232,
8,szalvéta,puska,,,,,,,,,0,0,0,0,,,,,0,8,8,7,,,,,,,,,561.4666790652554,None,,,,,,,,,,,puska,562.487199901836,None,4,5.523306522518396,562.487199901836,None,562.487199901836,None,562.487199901836,None, ,568.0546702924185,None,568.0546702924185,None,down,1.8118279536720365,568.0546702924185,None,569.8989909701049,None,4,2.3915479606948793,569.8989909701049,None,,,,,,,,,,,,,,,,,,,,,,,,,,,909877,2022_Jun_07_1609,palt,2021.1.2,52.07989749104232,
7,csavarhúzó,hering,,,,,,,,,0,0,0,0,,,,,0,9,9,6,,,,,,,,,572.3181653346401,None,,,,,,,,,,,csavarhúzó,573.3400611313991,None,4,9.031278865179047,573.3400611313991,None,573.3400611313991,None,573.3400611313991,None, ,582.4122261663433,None,582.4122261663433,None,down,5.790047851623967,582.4122261663433,None,588.2355461244006,None,4,5.819660654524341,588.2355461244006,None,,,,,,,,,,,,,,,,,,,,,,,,,,,909877,2022_Jun_07_1609,palt,2021.1.2,52.07989749104232,
,,,,,,,,,,,0,0,0,0,,,,,,,,,,,,,,,,,,,,,,,,,,,,,,,,,,,,,,,,,,,,,,,,,,,,,,,,,,,,,,,,,,,,,,,,,,,4,12.522369770566002,594.1178189355414,None,594.1178189355414,None,909877,2022_Jun_07_1609,palt,2021.1.2,52.07989749104232,
9,szilva,kecske,,,,,,,,,1,0,1,0,0,0,0,8,,,,,,,,,,,,,610.6908180902246,None,611.6908743823878,None,611.6908743823878,None,,,,,,,,,,,,,,,,,,,,,,,,,,,,,,,,,,,,,,,606.666328498628,None,,,,,,,,,,,,,,,,,,,909877,2022_Jun_07_1609,palt,2021.1.2,52.07989749104232,
4,mocsár,ananász,,,,,,,,,1,0,1,0,0,1,1,3,,,,,,,,,,,,,617.6729883938096,None,618.6860497372691,None,618.6860497372691,None,,,,,,,,,,,,,,,,,,,,,,,,,,,,,,,,,,,,,,,,,,,,,,,,,,,,,,,,,,,909877,2022_Jun_07_1609,palt,2021.1.2,52.07989749104232,
7,csavarhúzó,hering,,,,,,,,,1,0,1,0,0,2,2,6,,,,,,,,,,,,,624.6825394059997,None,625.6846505186986,None,625.6846505186986,None,,,,,,,,,,,,,,,,,,,,,,,,,,,,,,,,,,,,,,,,,,,,,,,,,,,,,,,,,,,909877,2022_Jun_07_1609,palt,2021.1.2,52.07989749104232,
5,karton,hentes,,,,,,,,,1,0,1,0,0,3,3,4,,,,,,,,,,,,,631.6742258889135,None,632.6920944612939,None,632.6920944612939,None,,,,,,,,,,,,,,,,,,,,,,,,,,,,,,,,,,,,,,,,,,,,,,,,,,,,,,,,,,,909877,2022_Jun_07_1609,palt,2021.1.2,52.07989749104232,
3,fogó,limonádé,,,,,,,,,1,0,1,0,0,4,4,2,,,,,,,,,,,,,638.6661919667386,None,639.6838024037424,None,639.6838024037424,None,,,,,,,,,,,,,,,,,,,,,,,,,,,,,,,,,,,,,,,,,,,,,,,,,,,,,,,,,,,909877,2022_Jun_07_1609,palt,2021.1.2,52.07989749104232,
6,menta,triatlon,,,,,,,,,1,0,1,0,0,5,5,5,,,,,,,,,,,,,645.6712377376389,None,646.6848775534891,None,646.6848775534891,None,,,,,,,,,,,,,,,,,,,,,,,,,,,,,,,,,,,,,,,,,,,,,,,,,,,,,,,,,,,909877,2022_Jun_07_1609,palt,2021.1.2,52.07989749104232,
10,málna,dominó,,,,,,,,,1,0,1,0,0,6,6,9,,,,,,,,,,,,,652.6686881056521,None,653.6835364929866,None,653.6835364929866,None,,,,,,,,,,,,,,,,,,,,,,,,,,,,,,,,,,,,,,,,,,,,,,,,,,,,,,,,,,,909877,2022_Jun_07_1609,palt,2021.1.2,52.07989749104232,
8,szalvéta,puska,,,,,,,,,1,0,1,0,0,7,7,7,,,,,,,,,,,,,659.6699427063577,None,660.6893566702493,None,660.6893566702493,None,,,,,,,,,,,,,,,,,,,,,,,,,,,,,,,,,,,,,,,,,,,,,,,,,,,,,,,,,,,909877,2022_Jun_07_1609,palt,2021.1.2,52.07989749104232,
1,bagoly,kirakó,,,,,,,,,1,0,1,0,0,8,8,0,,,,,,,,,,,,,666.6803384122904,None,667.6905282321386,None,667.6905282321386,None,,,,,,,,,,,,,,,,,,,,,,,,,,,,,,,,,,,,,,,,,,,,,,,,,,,,,,,,,,,909877,2022_Jun_07_1609,palt,2021.1.2,52.07989749104232,
2,kötény,tisztás,,,,,,,,,1,0,1,0,0,9,9,1,,,,,,,,,,,,,673.6697225135285,None,674.6867889999412,None,674.6867889999412,None,,,,,,,,,,,,,,,,,,,,,,,,,,,,,,,,,,,,,,,,,,,,,,,,,,,,,,,,,,,909877,2022_Jun_07_1609,palt,2021.1.2,52.07989749104232,
8,szalvéta,puska,,,,,,,,,1,0,1,0,,,,,0,0,0,7,,,,,,,,,689.957025420852,None,,,,,,,,,,,puska,690.9566413278226,None,4,6.7064570563379675,690.9566413278226,None,690.9566413278226,None,690.9566413278226,None, ,697.6960526420735,None,697.6960526420735,None,down,1.6729308576323092,697.6960526420735,None,699.3884425598662,None,4,3.302753714378923,699.3884425598662,None,,,,,,,685.9272611576598,None,680.6739490930922,None,u,1.60729540605098,680.6739490930922,None,682.3193987868726,None,4,3.572750660357997,682.3193987868726,None,,,,,,,909877,2022_Jun_07_1609,palt,2021.1.2,52.07989749104232,
3,fogó,limonádé,,,,,,,,,1,0,1,0,,,,,0,1,1,2,,,,,,,,,702.7282097900752,None,,,,,,,,,,,fogó,703.7496857277583,None,4,3.7682204763405025,703.7496857277583,None,703.7496857277583,None,703.7496857277583,None, limonádé,707.5453046401963,None,707.5453046401963,None,down,3.567414720542729,707.5453046401963,None,711.1579599336255,None,4,1.834049996221438,711.1579599336255,None,,,,,,,,,,,,,,,,,,,,,,,,,,,909877,2022_Jun_07_1609,palt,2021.1.2,52.07989749104232,
5,karton,hentes,,,,,,,,,1,0,1,0,,,,,0,2,2,4,,,,,,,,,713.0283989442978,None,,,,,,,,,,,karton,714.0507914184127,None,4,3.661955435294658,714.0507914184127,None,714.0507914184127,None,714.0507914184127,None, hering,717.7361942620482,None,717.7361942620482,None,down,2.928436140762642,717.7361942620482,None,720.7127437435556,None,4,7.814067823113874,720.7127437435556,None,,,,,,,,,,,,,,,,,,,,,,,,,,,909877,2022_Jun_07_1609,palt,2021.1.2,52.07989749104232,
6,menta,triatlon,,,,,,,,,1,0,1,0,,,,,0,3,3,5,,,,,,,,,728.5525803281926,None,,,,,,,,,,,triatlon,729.5682867828291,None,4,3.4193544373847544,729.5682867828291,None,729.5682867828291,None,729.5682867828291,None, menta,733.0311840081122,None,733.0311840081122,None,down,2.6413910577539355,733.0311840081122,None,735.7098025542218,None,4,1.8827713548671454,735.7098025542218,None,,,,,,,,,,,,,,,,,,,,,,,,,,,909877,2022_Jun_07_1609,palt,2021.1.2,52.07989749104232,
7,csavarhúzó,hering,,,,,,,,,1,0,1,0,,,,,0,4,4,6,,,,,,,,,737.6287918698508,None,,,,,,,,,,,csavarhúzó,738.6529119857587,None,4,6.839572540251538,738.6529119857587,None,738.6529119857587,None,738.6529119857587,None, hering,745.5295428263489,None,745.5295428263489,None,down,2.334889403078705,745.5295428263489,None,747.8876538469922,None,4,3.002808078425005,747.8876538469922,None,,,,,,,,,,,,,,,,,,,,,,,,,,,909877,2022_Jun_07_1609,palt,2021.1.2,52.07989749104232,
2,kötény,tisztás,,,,,,,,,1,0,1,0,,,,,0,5,5,1,,,,,,,,,750.9241613550112,None,,,,,,,,,,,tisztás,751.939689291874,None,4,6.39891446265392,751.939689291874,None,751.939689291874,None,751.939689291874,None, ,758.3785186505411,None,758.3785186505411,None,down,1.629784292075783,758.3785186505411,None,760.0475062557962,None,4,4.6418510363437235,760.0475062557962,None,,,,,,,,,,,,,,,,,,,,,,,,,,,909877,2022_Jun_07_1609,palt,2021.1.2,52.07989749104232,
4,mocsár,ananász,,,,,,,,,1,0,1,0,,,,,0,6,6,3,,,,,,,,,764.7138139172457,None,,,,,,,,,,,ananász,765.7389059285633,None,4,10.047161038732156,765.7389059285633,None,765.7389059285633,None,765.7389059285633,None, ,775.8286745583173,None,775.8286745583173,None,down,1.4114153722766787,775.8286745583173,None,777.2678659285884,None,4,1.6162617255467921,777.2678659285884,None,,,,,,,,,,,,,,,,,,,,,,,,,,,909877,2022_Jun_07_1609,palt,2021.1.2,52.07989749104232,
9,szilva,kecske,,,,,,,,,1,0,1,0,,,,,0,7,7,8,,,,,,,,,778.9072034100536,None,,,,,,,,,,,kecske,779.9371147793718,None,4,4.198952778475359,779.9371147793718,None,779.9371147793718,None,779.9371147793718,None, szilv,784.2006247499958,None,784.2006247499958,None,down,2.9113472618628293,784.2006247499958,None,787.1431933408603,None,4,5.82271971530281,787.1431933408603,None,,,,,,,,,,,,,,,,,,,,,,,,,,,909877,2022_Jun_07_1609,palt,2021.1.2,52.07989749104232,
1,bagoly,kirakó,,,,,,,,,1,0,1,0,,,,,0,8,8,0,,,,,,,,,793.0105844871141,None,,,,,,,,,,,kirakó,794.0336652186234,None,4,7.83019475848414,794.0336652186234,None,794.0336652186234,None,794.0336652186234,None, ,801.9117425510194,None,801.9117425510194,None,down,1.8240844120737165,801.9117425510194,None,803.7675993959419,None,4,2.2091671677771956,803.7675993959419,None,,,,,,,,,,,,,,,,,,,,,,,,,,,909877,2022_Jun_07_1609,palt,2021.1.2,52.07989749104232,
10,málna,dominó,,,,,,,,,1,0,1,0,,,,,0,9,9,9,,,,,,,,,806.0210433274042,None,,,,,,,,,,,málna,807.0386220416985,None,4,10.191319433040917,807.0386220416985,None,807.0386220416985,None,807.0386220416985,None, ,817.2762117905077,None,817.2762117905077,None,down,1.8515450495760888,817.2762117905077,None,819.1635620952584,None,4,3.5870435901451856,819.1635620952584,None,,,,,,,,,,,,,,,,,,,,,,,,,,,909877,2022_Jun_07_1609,palt,2021.1.2,52.07989749104232,
,,,,,,,,,,,1,0,1,0,,,,,,,,,,,,,,,,,,,,,,,,,,,,,,,,,,,,,,,,,,,,,,,,,,,,,,,,,,,,,,,,,,,,,,,,,,,4,19.75583308399655,822.8007449228317,None,822.8007449228317,None,909877,2022_Jun_07_1609,palt,2021.1.2,52.07989749104232,
10,málna,dominó,,,,,,,,,2,0,2,0,0,0,0,9,,,,,,,,,,,,,846.6253959890455,None,847.6149561200291,None,847.6149561200291,None,,,,,,,,,,,,,,,,,,,,,,,,,,,,,,,,,,,,,,,842.59410095145,None,,,,,,,,,,,,,,,,,,,909877,2022_Jun_07_1609,palt,2021.1.2,52.07989749104232,
4,mocsár,ananász,,,,,,,,,2,0,2,0,0,1,1,3,,,,,,,,,,,,,853.607128706295,None,854.6155314820353,None,854.6155314820353,None,,,,,,,,,,,,,,,,,,,,,,,,,,,,,,,,,,,,,,,,,,,,,,,,,,,,,,,,,,,909877,2022_Jun_07_1609,palt,2021.1.2,52.07989749104232,
7,csavarhúzó,hering,,,,,,,,,2,0,2,0,0,2,2,6,,,,,,,,,,,,,860.605179006001,None,861.6254588123411,None,861.6254588123411,None,,,,,,,,,,,,,,,,,,,,,,,,,,,,,,,,,,,,,,,,,,,,,,,,,,,,,,,,,,,909877,2022_Jun_07_1609,palt,2021.1.2,52.07989749104232,
2,kötény,tisztás,,,,,,,,,2,0,2,0,0,3,3,1,,,,,,,,,,,,,867.5984482013155,None,868.6153109783772,None,868.6153109783772,None,,,,,,,,,,,,,,,,,,,,,,,,,,,,,,,,,,,,,,,,,,,,,,,,,,,,,,,,,,,909877,2022_Jun_07_1609,palt,2021.1.2,52.07989749104232,
8,szalvéta,puska,,,,,,,,,2,0,2,0,0,4,4,7,,,,,,,,,,,,,874.6030840654857,None,875.616610674886,None,875.616610674886,None,,,,,,,,,,,,,,,,,,,,,,,,,,,,,,,,,,,,,,,,,,,,,,,,,,,,,,,,,,,909877,2022_Jun_07_1609,palt,2021.1.2,52.07989749104232,
3,fogó,limonádé,,,,,,,,,2,0,2,0,0,5,5,2,,,,,,,,,,,,,881.6029431796633,None,882.6203287588432,None,882.6203287588432,None,,,,,,,,,,,,,,,,,,,,,,,,,,,,,,,,,,,,,,,,,,,,,,,,,,,,,,,,,,,909877,2022_Jun_07_1609,palt,2021.1.2,52.07989749104232,
9,szilva,kecske,,,,,,,,,2,0,2,0,0,6,6,8,,,,,,,,,,,,,888.6028309061658,None,889.6211022320203,None,889.6211022320203,None,,,,,,,,,,,,,,,,,,,,,,,,,,,,,,,,,,,,,,,,,,,,,,,,,,,,,,,,,,,909877,2022_Jun_07_1609,palt,2021.1.2,52.07989749104232,
5,karton,hentes,,,,,,,,,2,0,2,0,0,7,7,4,,,,,,,,,,,,,895.6045162510127,None,896.6063440365251,None,896.6063440365251,None,,,,,,,,,,,,,,,,,,,,,,,,,,,,,,,,,,,,,,,,,,,,,,,,,,,,,,,,,,,909877,2022_Jun_07_1609,palt,2021.1.2,52.07989749104232,
6,menta,triatlon,,,,,,,,,2,0,2,0,0,8,8,5,,,,,,,,,,,,,902.5961125420872,None,903.6154450222384,None,903.6154450222384,None,,,,,,,,,,,,,,,,,,,,,,,,,,,,,,,,,,,,,,,,,,,,,,,,,,,,,,,,,,,909877,2022_Jun_07_1609,palt,2021.1.2,52.07989749104232,
1,bagoly,kirakó,,,,,,,,,2,0,2,0,0,9,9,0,,,,,,,,,,,,,909.6023283195682,None,910.6165092869196,None,910.6165092869196,None,,,,,,,,,,,,,,,,,,,,,,,,,,,,,,,,,,,,,,,,,,,,,,,,,,,,,,,,,,,909877,2022_Jun_07_1609,palt,2021.1.2,52.07989749104232,
4,mocsár,ananász,,,,,,,,,2,0,2,0,,,,,0,0,0,3,,,,,,,,,924.7514643743634,None,,,,,,,,,,,ananász,925.747445236193,None,4,10.087801513029262,925.747445236193,None,925.747445236193,None,925.747445236193,None, ,935.880051291082,None,935.880051291082,None,down,1.9981037927791476,935.880051291082,None,937.9165594212245,None,4,2.6817289229948074,937.9165594212245,None,,,,,,,920.7295125965029,None,916.6075258615892,None,u,1.5591127106454223,916.6075258615892,None,918.1997946733609,None,4,2.5006929226219654,918.1997946733609,None,,,,,,,909877,2022_Jun_07_1609,palt,2021.1.2,52.07989749104232,
8,szalvéta,puska,,,,,,,,,2,0,2,0,,,,,0,1,1,7,,,,,,,,,940.6340758719016,None,,,,,,,,,,,puska,941.6536521813832,None,4,12.259391932282597,941.6536521813832,None,941.6536521813832,None,941.6536521813832,None, szalvéta,953.9544617936481,None,953.9544617936481,None,down,3.9719699095003307,953.9544617936481,None,957.970252531115,None,4,1.8579132203012705,957.970252531115,None,,,,,,,,,,,,,,,,,,,,,,,,,,,909877,2022_Jun_07_1609,palt,2021.1.2,52.07989749104232,
1,bagoly,kirakó,,,,,,,,,2,0,2,0,,,,,0,2,2,0,,,,,,,,,959.8565892654005,None,,,,,,,,,,,kirakó,960.8818495310843,None,4,3.7081209416501224,960.8818495310843,None,960.8818495310843,None,960.8818495310843,None, bagoly,964.6240194737911,None,964.6240194737911,None,down,3.7178056868724525,964.6240194737911,None,968.3828798960894,None,4,1.4450784141663462,968.3828798960894,None,,,,,,,,,,,,,,,,,,,,,,,,,,,909877,2022_Jun_07_1609,palt,2021.1.2,52.07989749104232,
6,menta,triatlon,,,,,,,,,2,0,2,0,,,,,0,3,3,5,,,,,,,,,969.8638456710614,None,,,,,,,,,,,triatlon,970.8826397988014,None,None,,970.8826397988014,None,970.8826397988014,None,970.8826397988014,None, ,985.8826528610662,None,985.8826528610662,None,down,1.6910407710820436,985.8826528610662,None,987.6053077627439,None,4,2.288661695085466,987.6053077627439,None,,,,,,,,,,,,,,,,,,,,,,,,,,,909877,2022_Jun_07_1609,palt,2021.1.2,52.07989749104232,
2,kötény,tisztás,,,,,,,,,2,0,2,0,,,,,0,4,4,1,,,,,,,,,989.9346285928041,None,,,,,,,,,,,tisztás,990.9497774124611,None,4,3.8461786308325827,990.9497774124611,None,990.9497774124611,None,990.9497774124611,None, kötény,994.8432486378588,None,994.8432486378588,None,down,3.4183800537139177,994.8432486378588,None,998.3067709864117,None,4,1.441771169891581,998.3067709864117,None,,,,,,,,,,,,,,,,,,,,,,,,,,,909877,2022_Jun_07_1609,palt,2021.1.2,52.07989749104232,
9,szilva,kecske,,,,,,,,,2,0,2,0,,,,,0,5,5,8,,,,,,,,,999.7733486637007,None,,,,,,,,,,,kecske,1000.8036472362,None,4,2.9817824782803655,1000.8036472362,None,1000.8036472362,None,1000.8036472362,None, szilva,1003.8280789805576,None,1003.8280789805576,None,down,3.5693028413224965,1003.8280789805576,None,1007.437704136828,None,4,1.7838159014936537,1007.437704136828,None,,,,,,,,,,,,,,,,,,,,,,,,,,,909877,2022_Jun_07_1609,palt,2021.1.2,52.07989749104232,
5,karton,hentes,,,,,,,,,2,0,2,0,,,,,0,6,6,4,,,,,,,,,1009.2619991004467,None,,,,,,,,,,,karton,1010.2834868563805,None,4,5.502857839455828,1010.2834868563805,None,1010.2834868563805,None,1010.2834868563805,None, hering,1015.8100940918084,None,1015.8100940918084,None,down,2.595384475775063,1015.8100940918084,None,1018.4693440808915,None,4,5.240260673221201,1018.4693440808915,None,,,,,,,,,,,,,,,,,,,,,,,,,,,909877,2022_Jun_07_1609,palt,2021.1.2,52.07989749104232,
7,csavarhúzó,hering,,,,,,,,,2,0,2,0,,,,,0,7,7,6,,,,,,,,,1023.7454348898027,None,,,,,,,,,,,csavarhúzó,1024.7683877977543,None,4,2.8958678420167416,1024.7683877977543,None,1024.7683877977543,None,1024.7683877977543,None, hering,1027.7109025844838,None,1027.7109025844838,None,down,3.0783525111619383,1027.7109025844838,None,1030.829338246258,None,4,1.3427967454772443,1030.829338246258,None,,,,,,,,,,,,,,,,,,,,,,,,,,,909877,2022_Jun_07_1609,palt,2021.1.2,52.07989749104232,
10,málna,dominó,,,,,,,,,2,0,2,0,,,,,0,8,8,9,,,,,,,,,1032.212167759426,None,,,,,,,,,,,málna,1033.2341509487014,None,4,6.469231496565044,1033.2341509487014,None,1033.2341509487014,None,1033.2341509487014,None, ,1039.7462198704015,None,1039.7462198704015,None,down,2.3228646444622427,1039.7462198704015,None,1042.1180870232638,None,4,2.880029520718381,1042.1180870232638,None,,,,,,,,,,,,,,,,,,,,,,,,,,,909877,2022_Jun_07_1609,palt,2021.1.2,52.07989749104232,
3,fogó,limonádé,,,,,,,,,2,0,2,0,,,,,0,9,9,2,,,,,,,,,1045.0370247119572,None,,,,,,,,,,,fogó,1046.0584039264359,None,4,11.75684261135757,1046.0584039264359,None,1046.0584039264359,None,1046.0584039264359,None, ,1057.8547667667735,None,1057.8547667667735,None,down,2.0542398595716804,1057.8547667667735,None,1059.937110425206,None,4,1.787153935059905,1059.937110425206,None,,,,,,,,,,,,,,,,,,,,,,,,,,,909877,2022_Jun_07_1609,palt,2021.1.2,52.07989749104232,
,,,,,,,,,,,2,0,2,0,,,,,,,,,,,,,,,,,,,,,,,,,,,,,,,,,,,,,,,,,,,,,,,,,,,,,,,,,,,,,,,,,,,,,,,,,,,4,14.083536679623649,1061.7802243973128,None,1061.7802243973128,None,909877,2022_Jun_07_1609,palt,2021.1.2,52.07989749104232,
3,fogó,limonádé,,,,,,,,,3,0,3,0,0,0,0,2,,,,,,,,,,,,,1079.9134322497994,None,1080.9127853561658,None,1080.9127853561658,None,,,,,,,,,,,,,,,,,,,,,,,,,,,,,,,,,,,,,,,1075.8917771724518,None,,,,,,,,,,,,,,,,,,,909877,2022_Jun_07_1609,palt,2021.1.2,52.07989749104232,
8,szalvéta,puska,,,,,,,,,3,0,3,0,0,1,1,7,,,,,,,,,,,,,1086.902115653269,None,1087.9182338805404,None,1087.9182338805404,None,,,,,,,,,,,,,,,,,,,,,,,,,,,,,,,,,,,,,,,,,,,,,,,,,,,,,,,,,,,909877,2022_Jun_07_1609,palt,2021.1.2,52.07989749104232,
2,kötény,tisztás,,,,,,,,,3,0,3,0,0,2,2,1,,,,,,,,,,,,,1093.9009400482755,None,1094.912226477405,None,1094.912226477405,None,,,,,,,,,,,,,,,,,,,,,,,,,,,,,,,,,,,,,,,,,,,,,,,,,,,,,,,,,,,909877,2022_Jun_07_1609,palt,2021.1.2,52.07989749104232,
4,mocsár,ananász,,,,,,,,,3,0,3,0,0,3,3,3,,,,,,,,,,,,,1100.9008377271239,None,1101.9036075519398,None,1101.9036075519398,None,,,,,,,,,,,,,,,,,,,,,,,,,,,,,,,,,,,,,,,,,,,,,,,,,,,,,,,,,,,909877,2022_Jun_07_1609,palt,2021.1.2,52.07989749104232,
7,csavarhúzó,hering,,,,,,,,,3,0,3,0,0,4,4,6,,,,,,,,,,,,,1107.9012787346728,None,1108.9186207726598,None,1108.9186207726598,None,,,,,,,,,,,,,,,,,,,,,,,,,,,,,,,,,,,,,,,,,,,,,,,,,,,,,,,,,,,909877,2022_Jun_07_1609,palt,2021.1.2,52.07989749104232,
9,szilva,kecske,,,,,,,,,3,0,3,0,0,5,5,8,,,,,,,,,,,,,1114.9010333502665,None,1115.9120579117443,None,1115.9120579117443,None,,,,,,,,,,,,,,,,,,,,,,,,,,,,,,,,,,,,,,,,,,,,,,,,,,,,,,,,,,,909877,2022_Jun_07_1609,palt,2021.1.2,52.07989749104232,
5,karton,hentes,,,,,,,,,3,0,3,0,0,6,6,4,,,,,,,,,,,,,1121.8998269557487,None,1122.917548733065,None,1122.917548733065,None,,,,,,,,,,,,,,,,,,,,,,,,,,,,,,,,,,,,,,,,,,,,,,,,,,,,,,,,,,,909877,2022_Jun_07_1609,palt,2021.1.2,52.07989749104232,
1,bagoly,kirakó,,,,,,,,,3,0,3,0,0,7,7,0,,,,,,,,,,,,,1128.906273811357,None,1129.9138247400988,None,1129.9138247400988,None,,,,,,,,,,,,,,,,,,,,,,,,,,,,,,,,,,,,,,,,,,,,,,,,,,,,,,,,,,,909877,2022_Jun_07_1609,palt,2021.1.2,52.07989749104232,
6,menta,triatlon,,,,,,,,,3,0,3,0,0,8,8,5,,,,,,,,,,,,,1135.9009356943425,None,1136.919959345134,None,1136.919959345134,None,,,,,,,,,,,,,,,,,,,,,,,,,,,,,,,,,,,,,,,,,,,,,,,,,,,,,,,,,,,909877,2022_Jun_07_1609,palt,2021.1.2,52.07989749104232,
10,málna,dominó,,,,,,,,,3,0,3,0,0,9,9,9,,,,,,,,,,,,,1142.8977456998546,None,1143.9148743874393,None,1143.9148743874393,None,,,,,,,,,,,,,,,,,,,,,,,,,,,,,,,,,,,,,,,,,,,,,,,,,,,,,,,,,,,909877,2022_Jun_07_1609,palt,2021.1.2,52.07989749104232,
3,fogó,limonádé,,,,,,,,,3,0,3,0,,,,,0,0,0,2,,,,,,,,,1159.1015259225387,None,,,,,,,,,,,fogó,1160.0881762758363,None,4,2.992561033461243,1160.0881762758363,None,1160.0881762758363,None,1160.0881762758363,None, limonádé,1163.1240667467937,None,1163.1240667467937,None,down,4.351985123939812,1163.1240667467937,None,1167.5232720007189,None,4,1.4554206270258874,1167.5232720007189,None,,,,,,,1155.0749152661301,None,1149.8935418238398,None,u,1.6463267321232706,1149.8935418238398,None,1151.565008151345,None,4,3.4727427607867867,1151.565008151345,None,,,,,,,909877,2022_Jun_07_1609,palt,2021.1.2,52.07989749104232,
6,menta,triatlon,,,,,,,,,3,0,3,0,,,,,0,1,1,5,,,,,,,,,1169.0073811190668,None,,,,,,,,,,,triatlon,1170.0289618661627,None,4,3.7376858496572822,1170.0289618661627,None,1170.0289618661627,None,1170.0289618661627,None, menta,1173.7963780793361,None,1173.7963780793361,None,down,2.895225613610819,1173.7963780793361,None,1176.7357177999802,None,4,1.0889170938171446,1176.7357177999802,None,,,,,,,,,,,,,,,,,,,,,,,,,,,909877,2022_Jun_07_1609,palt,2021.1.2,52.07989749104232,
8,szalvéta,puska,,,,,,,,,3,0,3,0,,,,,0,2,2,7,,,,,,,,,1177.8532182648778,None,,,,,,,,,,,puska,1178.86495347647,None,4,4.100838287035003,1178.86495347647,None,1178.86495347647,None,1178.86495347647,None, ,1182.9998675109819,None,1182.9998675109819,None,down,8.651884109014645,1182.9998675109819,None,1191.6937916241586,None,4,2.2336496063508093,1191.6937916241586,None,,,,,,,,,,,,,,,,,,,,,,,,,,,909877,2022_Jun_07_1609,palt,2021.1.2,52.07989749104232,
7,csavarhúzó,hering,,,,,,,,,3,0,3,0,,,,,0,3,3,6,,,,,,,,,1193.9569694397505,None,,,,,,,,,,,csavarhúzó,1194.9847672083415,None,4,7.108672232134268,1194.9847672083415,None,1194.9847672083415,None,1194.9847672083415,None, hering,1202.1186418589205,None,1202.1186418589205,None,down,2.5569269564002752,1202.1186418589205,None,1204.7127508965787,None,4,2.0757496969308704,1204.7127508965787,None,,,,,,,,,,,,,,,,,,,,,,,,,,,909877,2022_Jun_07_1609,palt,2021.1.2,52.07989749104232,
10,málna,dominó,,,,,,,,,3,0,3,0,,,,,0,4,4,9,,,,,,,,,1206.8182032774203,None,,,,,,,,,,,málna,1207.8342549493536,None,4,7.420830785762519,1207.8342549493536,None,1207.8342549493536,None,1207.8342549493536,None, dominó,1215.3030522807967,None,1215.3030522807967,None,down,3.052436643280089,1215.3030522807967,None,1218.3861883841455,None,4,1.2701963011641055,1218.3861883841455,None,,,,,,,,,,,,,,,,,,,,,,,,,,,909877,2022_Jun_07_1609,palt,2021.1.2,52.07989749104232,
4,mocsár,ananász,,,,,,,,,3,0,3,0,,,,,0,5,5,3,,,,,,,,,1219.6864297874272,None,,,,,,,,,,,ananász,1220.7058947565965,None,4,3.469038672512397,1220.7058947565965,None,1220.7058947565965,None,1220.7058947565965,None, mocsár,1224.2186668638606,None,1224.2186668638606,None,down,13.128235790412873,1224.2186668638606,None,1237.3755588009953,None,4,3.066328374436125,1237.3755588009953,None,,,,,,,,,,,,,,,,,,,,,,,,,,,909877,2022_Jun_07_1609,palt,2021.1.2,52.07989749104232,
9,szilva,kecske,,,,,,,,,3,0,3,0,,,,,0,6,6,8,,,,,,,,,1240.4690856342204,None,,,,,,,,,,,kecske,1241.4839766295627,None,4,2.529773904476315,1241.4839766295627,None,1241.4839766295627,None,1241.4839766295627,None, szilva,1244.0592579506338,None,1244.0592579506338,None,down,2.8554229906294495,1244.0592579506338,None,1246.952164388029,None,4,1.3865961136762053,1246.952164388029,None,,,,,,,,,,,,,,,,,,,,,,,,,,,909877,2022_Jun_07_1609,palt,2021.1.2,52.07989749104232,
5,karton,hentes,,,,,,,,,3,0,3,0,,,,,0,7,7,4,,,,,,,,,1248.3620962589048,None,,,,,,,,,,,karton,1249.3777330480516,None,4,4.036916792858392,1249.3777330480516,None,1249.3777330480516,None,1249.3777330480516,None, hentes,1253.460176850669,None,1253.460176850669,None,down,2.7024089947808534,1253.460176850669,None,1256.203918931773,None,4,1.372779335360974,1256.203918931773,None,,,,,,,,,,,,,,,,,,,,,,,,,,,909877,2022_Jun_07_1609,palt,2021.1.2,52.07989749104232,
2,kötény,tisztás,,,,,,,,,3,0,3,0,,,,,0,8,8,1,,,,,,,,,1257.6067523881793,None,,,,,,,,,,,tisztás,1258.627135759918,None,4,2.7694212726783007,1258.627135759918,None,1258.627135759918,None,1258.627135759918,None, kötény,1261.4400323322043,None,1261.4400323322043,None,down,2.8185696434229612,1261.4400323322043,None,1264.2841956403572,None,4,1.0793048131745309,1264.2841956403572,None,,,,,,,,,,,,,,,,,,,,,,,,,,,909877,2022_Jun_07_1609,palt,2021.1.2,52.07989749104232,
1,bagoly,kirakó,,,,,,,,,3,0,3,0,,,,,0,9,9,0,,,,,,,,,1265.4042448042892,None,,,,,,,,,,,kirakó,1266.4254912191536,None,4,3.6779259343165904,1266.4254912191536,None,1266.4254912191536,None,1266.4254912191536,None, bagoly,1270.146624054527,None,1270.146624054527,None,down,2.672037024749443,1270.146624054527,None,1272.8471240908839,None,4,1.1093788391444832,1272.8471240908839,None,,,,,,,,,,,,,,,,,,,,,,,,,,,909877,2022_Jun_07_1609,palt,2021.1.2,52.07989749104232,
