itemno,wordA,wordB,enc_gyak.thisRepN,enc_gyak.thisTrialN,enc_gyak.thisN,enc_gyak.thisIndex,rec_gyak.thisRepN,rec_gyak.thisTrialN,rec_gyak.thisN,rec_gyak.thisIndex,repeat_task.thisRepN,repeat_task.thisTrialN,repeat_task.thisN,repeat_task.thisIndex,enc_loop.thisRepN,enc_loop.thisTrialN,enc_loop.thisN,enc_loop.thisIndex,test_loop.thisRepN,test_loop.thisTrialN,test_loop.thisN,test_loop.thisIndex,int.started,int.stopped,int_key.keys,int_key.rt,int_key.started,int_key.stopped,prepare_gyak_text.started,prepare_gyak_text.stopped,fix.started,fix.stopped,word1.started,word1.stopped,word2.started,word2.stopped,gykrec_inst.started,gykrec_inst.stopped,gyakrec_inst.keys,gyakrec_inst.rt,gyakrec_inst.started,gyakrec_inst.stopped,cueword,cueword1.started,cueword1.stopped,cue_resp.keys,cue_resp.rt,cue_resp.started,cue_resp.stopped,cue_cont_text.started,cue_cont_text.stopped,cue_space.started,cue_space.stopped,test_ansbox.text,test_ansbox.started,test_ansbox.stopped,ans_text.started,ans_text.stopped,ans_continue.keys,ans_continue.rt,ans_continue.started,ans_continue.stopped,feedback_text.started,feedback_text.stopped,feedback_cont.keys,feedback_cont.rt,feedback_cont.started,feedback_cont.stopped,main_prep.started,main_prep.stopped,main_prep_resp.keys,main_prep_resp.rt,main_prep_resp.started,main_prep_resp.stopped,preparation.started,preparation.stopped,break_text.started,break_text.stopped,key_resp.keys,key_resp.rt,key_resp.started,key_resp.stopped,test_instruction.started,test_instruction.stopped,test_i_key.keys,test_i_key.rt,test_i_key.started,test_i_key.stopped,rep_routine.keys,rep_routine.rt,rep_routine.started,rep_routine.stopped,encrep_textbox.started,encrep_textbox.stopped,Résztvevő kódja,date,expName,psychopyVersion,frameRate,
,,,,,,,,,,,,,,,,,,,,,,,19.73301096483192,None,4,146.0420350018976,19.73301096483192,None,,,,,,,,,,,,,,,,,,,,,,,,,,,,,,,,,,,,,,,,,,,,,,,,,,,,,,,,,,,,,,,,,,,928116,2022_Jun_30_1543,palt,2021.1.2,51.17926450458927,
2,lepke,szintetizátor,0,0,0,1,,,,,,,,,,,,,,,,,,,,,,,165.81371463545656,None,168.83379134206916,None,169.8350058220385,None,169.8350058220385,None,,,,,,,,,,,,,,,,,,,,,,,,,,,,,,,,,,,,,,,,,,,,,,,,,,,,,,,,,,,928116,2022_Jun_30_1543,palt,2021.1.2,51.17926450458927,
4,kard,harcsa,0,1,1,3,,,,,,,,,,,,,,,,,,,,,,,,,175.81457581215363,None,176.82361396891065,None,176.82361396891065,None,,,,,,,,,,,,,,,,,,,,,,,,,,,,,,,,,,,,,,,,,,,,,,,,,,,,,,,,,,,928116,2022_Jun_30_1543,palt,2021.1.2,51.17926450458927,
1,sapka,beton,0,2,2,0,,,,,,,,,,,,,,,,,,,,,,,,,182.81461717600178,None,183.83149393786152,None,183.83149393786152,None,,,,,,,,,,,,,,,,,,,,,,,,,,,,,,,,,,,,,,,,,,,,,,,,,,,,,,,,,,,928116,2022_Jun_30_1543,palt,2021.1.2,51.17926450458927,
3,majoránna,szikla,0,3,3,2,,,,,,,,,,,,,,,,,,,,,,,,,189.81850133482658,None,190.8365204231668,None,190.8365204231668,None,,,,,,,,,,,,,,,,,,,,,,,,,,,,,,,,,,,,,,,,,,,,,,,,,,,,,,,,,,,928116,2022_Jun_30_1543,palt,2021.1.2,51.17926450458927,
,,,,,,,,,,,,,,,,,,,,,,,,,,,,,,,,,,,,,196.81449432848603,None,4,11.383120687896735,196.81449432848603,None,,,,,,,,,,,,,,,,,,,,,,,,,,,,,,,,,,,,,,,,,,,,,,,,,,,,,928116,2022_Jun_30_1543,palt,2021.1.2,51.17926450458927,
3,majoránna,szikla,,,,,0,0,0,2,,,,,,,,,,,,,,,,,,,,,208.2383310401783,None,,,,,,,,,,,szikla,209.23737562853785,None,4,6.657018730053096,209.23737562853785,None,209.23737562853785,None,209.23737562853785,None,majoránna,215.95367310987785,None,215.95367310987785,None,down,3.675801650068024,215.95367310987785,None,219.68484229486785,None,4,2.4796281483140774,219.68484229486785,None,,,,,,,,,,,,,,,,,,,,,,,,,,,928116,2022_Jun_30_1543,palt,2021.1.2,51.17926450458927,
2,lepke,szintetizátor,,,,,0,1,1,1,,,,,,,,,,,,,,,,,,,,,222.18725539346633,None,,,,,,,,,,,szintetizátor,223.20412966726872,None,None,,223.20412966726872,None,223.20412966726872,None,223.20412966726872,None, lepke,238.19253223891428,None,238.19253223891428,None,down,3.0526695544540416,238.19253223891428,None,241.28294179700606,None,4,1.8331615541392239,241.28294179700606,None,,,,,,,,,,,,,,,,,,,,,,,,,,,928116,2022_Jun_30_1543,palt,2021.1.2,51.17926450458927,
4,kard,harcsa,,,,,0,2,2,3,,,,,,,,,,,,,,,,,,,,,243.13698587533145,None,,,,,,,,,,,kard,244.1671059113578,None,4,4.352932541471091,244.1671059113578,None,244.1671059113578,None,244.1671059113578,None, harcsa,248.5562265345652,None,248.5562265345652,None,down,16.992677976522828,248.5562265345652,None,265.57633216476825,None,4,2.2036454303306527,265.57633216476825,None,,,,,,,,,,,,,,,,,,,,,,,,,,,928116,2022_Jun_30_1543,palt,2021.1.2,51.17926450458927,
1,sapka,beton,,,,,0,3,3,0,,,,,,,,,,,,,,,,,,,,,267.80794577789493,None,,,,,,,,,,,beton,268.8286286359653,None,None,,268.8286286359653,None,268.8286286359653,None,268.8286286359653,None, ,283.82973706275516,None,283.82973706275516,None,down,1.8948272794805234,283.82973706275516,None,285.7684041142347,None,4,3.059301765766577,285.7684041142347,None,,,,,,,,,,,,,,,,,,,,,,,,,,,928116,2022_Jun_30_1543,palt,2021.1.2,51.17926450458927,
,,,,,,,,,,,,,,,,,,,,,,,,,,,,,,,,,,,,,,,,,,,,,,,,,,,,,,,,,,,,,,,,,,,,,288.8573388800287,None,4,64.01157907898596,288.8573388800287,None,,,,,,,,,,,,,,,,,,,,,928116,2022_Jun_30_1543,palt,2021.1.2,51.17926450458927,
10,málna,dominó,,,,,,,,,0,0,0,0,0,0,0,9,,,,,,,,,,,,,356.9187673074921,None,357.9117264337983,None,357.9117264337983,None,,,,,,,,,,,,,,,,,,,,,,,,,,,,,,,,,,,,,,,352.90029072876496,None,,,,,,,,,,,,,,,,,,,928116,2022_Jun_30_1543,palt,2021.1.2,51.17926450458927,
8,szalvéta,puska,,,,,,,,,0,0,0,0,0,1,1,7,,,,,,,,,,,,,363.9124843563768,None,364.9192842001212,None,364.9192842001212,None,,,,,,,,,,,,,,,,,,,,,,,,,,,,,,,,,,,,,,,,,,,,,,,,,,,,,,,,,,,928116,2022_Jun_30_1543,palt,2021.1.2,51.17926450458927,
7,csavarhúzó,hering,,,,,,,,,0,0,0,0,0,2,2,6,,,,,,,,,,,,,370.91995037581364,None,371.9169790207525,None,371.9169790207525,None,,,,,,,,,,,,,,,,,,,,,,,,,,,,,,,,,,,,,,,,,,,,,,,,,,,,,,,,,,,928116,2022_Jun_30_1543,palt,2021.1.2,51.17926450458927,
1,bagoly,kirakó,,,,,,,,,0,0,0,0,0,3,3,0,,,,,,,,,,,,,377.8996055816824,None,378.91229246542207,None,378.91229246542207,None,,,,,,,,,,,,,,,,,,,,,,,,,,,,,,,,,,,,,,,,,,,,,,,,,,,,,,,,,,,928116,2022_Jun_30_1543,palt,2021.1.2,51.17926450458927,
4,mocsár,ananász,,,,,,,,,0,0,0,0,0,4,4,3,,,,,,,,,,,,,384.9137420662155,None,385.9167445219209,None,385.9167445219209,None,,,,,,,,,,,,,,,,,,,,,,,,,,,,,,,,,,,,,,,,,,,,,,,,,,,,,,,,,,,928116,2022_Jun_30_1543,palt,2021.1.2,51.17926450458927,
3,fogó,limonádé,,,,,,,,,0,0,0,0,0,5,5,2,,,,,,,,,,,,,391.9120588996302,None,392.9152090833668,None,392.9152090833668,None,,,,,,,,,,,,,,,,,,,,,,,,,,,,,,,,,,,,,,,,,,,,,,,,,,,,,,,,,,,928116,2022_Jun_30_1543,palt,2021.1.2,51.17926450458927,
9,szilva,kecske,,,,,,,,,0,0,0,0,0,6,6,8,,,,,,,,,,,,,398.91351254349865,None,399.92109892242297,None,399.92109892242297,None,,,,,,,,,,,,,,,,,,,,,,,,,,,,,,,,,,,,,,,,,,,,,,,,,,,,,,,,,,,928116,2022_Jun_30_1543,palt,2021.1.2,51.17926450458927,
6,menta,triatlon,,,,,,,,,0,0,0,0,0,7,7,5,,,,,,,,,,,,,405.89756973384647,None,406.90917307131167,None,406.90917307131167,None,,,,,,,,,,,,,,,,,,,,,,,,,,,,,,,,,,,,,,,,,,,,,,,,,,,,,,,,,,,928116,2022_Jun_30_1543,palt,2021.1.2,51.17926450458927,
2,kötény,tisztás,,,,,,,,,0,0,0,0,0,8,8,1,,,,,,,,,,,,,412.8997722811182,None,413.91004824329866,None,413.91004824329866,None,,,,,,,,,,,,,,,,,,,,,,,,,,,,,,,,,,,,,,,,,,,,,,,,,,,,,,,,,,,928116,2022_Jun_30_1543,palt,2021.1.2,51.17926450458927,
5,karton,hentes,,,,,,,,,0,0,0,0,0,9,9,4,,,,,,,,,,,,,419.91170217529,None,420.9186830247636,None,420.9186830247636,None,,,,,,,,,,,,,,,,,,,,,,,,,,,,,,,,,,,,,,,,,,,,,,,,,,,,,,,,,,,928116,2022_Jun_30_1543,palt,2021.1.2,51.17926450458927,
10,málna,dominó,,,,,,,,,0,0,0,0,,,,,0,0,0,9,,,,,,,,,446.1367644387792,None,,,,,,,,,,,málna,447.1370978376217,None,None,,447.1370978376217,None,447.1370978376217,None,447.1370978376217,None, ,462.1268651053251,None,462.1268651053251,None,down,2.4115852368995547,462.1268651053251,None,464.57678343504085,None,4,3.058691260230262,464.57678343504085,None,,,,,,,442.1138152771309,None,426.9118038743909,None,u,1.947234344552271,426.9118038743909,None,428.9146517599147,None,4,13.156067050484126,428.9146517599147,None,,,,,,,928116,2022_Jun_30_1543,palt,2021.1.2,51.17926450458927,
3,fogó,limonádé,,,,,,,,,0,0,0,0,,,,,0,1,1,2,,,,,,,,,467.6694042485906,None,,,,,,,,,,,limonádé,468.69911655523174,None,None,,468.69911655523174,None,468.69911655523174,None,468.69911655523174,None, ,483.68181340362935,None,483.68181340362935,None,down,2.1203852871549316,483.68181340362935,None,485.84272966577555,None,4,1.64477471941791,485.84272966577555,None,,,,,,,,,,,,,,,,,,,,,,,,,,,928116,2022_Jun_30_1543,palt,2021.1.2,51.17926450458927,
8,szalvéta,puska,,,,,,,,,0,0,0,0,,,,,0,2,2,7,,,,,,,,,487.52111080285977,None,,,,,,,,,,,puska,488.5379639282328,None,None,,488.5379639282328,None,488.5379639282328,None,488.5379639282328,None, ,503.5364415519434,None,503.5364415519434,None,down,1.5296777849289356,503.5364415519434,None,505.10664378073125,None,4,2.211615902124322,505.10664378073125,None,,,,,,,,,,,,,,,,,,,,,,,,,,,928116,2022_Jun_30_1543,palt,2021.1.2,51.17926450458927,
6,menta,triatlon,,,,,,,,,0,0,0,0,,,,,0,3,3,5,,,,,,,,,507.34833991008054,None,,,,,,,,,,,triatlon,508.36434865309275,None,None,,508.36434865309275,None,508.36434865309275,None,508.36434865309275,None, ,523.3728083379538,None,523.3728083379538,None,down,1.7089981613389682,523.3728083379538,None,525.1024806491769,None,4,1.682344291548361,525.1024806491769,None,,,,,,,,,,,,,,,,,,,,,,,,,,,928116,2022_Jun_30_1543,palt,2021.1.2,51.17926450458927,
5,karton,hentes,,,,,,,,,0,0,0,0,,,,,0,4,4,4,,,,,,,,,526.8184895165905,None,,,,,,,,,,,karton,527.8255418975314,None,None,,527.8255418975314,None,527.8255418975314,None,527.8255418975314,None,,542.8274863094848,None,542.8274863094848,None,down,2.3984078960784245,542.8274863094848,None,545.263674329035,None,4,3.5108836686849827,545.263674329035,None,,,,,,,,,,,,,,,,,,,,,,,,,,,928116,2022_Jun_30_1543,palt,2021.1.2,51.17926450458927,
9,szilva,kecske,,,,,,,,,0,0,0,0,,,,,0,5,5,8,,,,,,,,,548.7991825507925,None,,,,,,,,,,,kecske,549.8132272884395,None,4,10.610048367714626,549.8132272884395,None,549.8132272884395,None,549.8132272884395,None, ,560.4690669932606,None,560.4690669932606,None,down,1.7802994867233792,560.4690669932606,None,562.2737462710211,None,4,1.7336140062252525,562.2737462710211,None,,,,,,,,,,,,,,,,,,,,,,,,,,,928116,2022_Jun_30_1543,palt,2021.1.2,51.17926450458927,
1,bagoly,kirakó,,,,,,,,,0,0,0,0,,,,,0,6,6,0,,,,,,,,,564.0313282958523,None,,,,,,,,,,,kirakó,565.0462817941734,None,None,,565.0462817941734,None,565.0462817941734,None,565.0462817941734,None, ,580.0580033140723,None,580.0580033140723,None,down,3.5670078821422067,580.0580033140723,None,583.6626246202504,None,4,5.1143996581377,583.6626246202504,None,,,,,,,,,,,,,,,,,,,,,,,,,,,928116,2022_Jun_30_1543,palt,2021.1.2,51.17926450458927,
7,csavarhúzó,hering,,,,,,,,,0,0,0,0,,,,,0,7,7,6,,,,,,,,,588.8066821589309,None,,,,,,,,,,,csavarhúzó,589.8264351078833,None,4,12.188679802740808,589.8264351078833,None,589.8264351078833,None,589.8264351078833,None, ,602.0505260984064,None,602.0505260984064,None,down,2.1503401787776966,602.0505260984064,None,604.2348048497079,None,4,1.1839920033962699,604.2348048497079,None,,,,,,,,,,,,,,,,,,,,,,,,,,,928116,2022_Jun_30_1543,palt,2021.1.2,51.17926450458927,
4,mocsár,ananász,,,,,,,,,0,0,0,0,,,,,0,8,8,3,,,,,,,,,605.4456049820728,None,,,,,,,,,,,mocsár,606.460339220881,None,4,8.026384849261376,606.460339220881,None,606.460339220881,None,606.460339220881,None, ,614.5109035730857,None,614.5109035730857,None,down,2.0739968177949777,614.5109035730857,None,616.6089713525726,None,4,1.7717601842159638,616.6089713525726,None,,,,,,,,,,,,,,,,,,,,,,,,,,,928116,2022_Jun_30_1543,palt,2021.1.2,51.17926450458927,
2,kötény,tisztás,,,,,,,,,0,0,0,0,,,,,0,9,9,1,,,,,,,,,618.420341310848,None,,,,,,,,,,,tisztás,619.4379697751428,None,4,14.240543228632305,619.4379697751428,None,619.4379697751428,None,619.4379697751428,None, ,633.7121486560791,None,633.7121486560791,None,down,1.880372635423555,633.7121486560791,None,635.6214178283699,None,4,2.2453022484551184,635.6214178283699,None,,,,,,,,,,,,,,,,,,,,,,,,,,,928116,2022_Jun_30_1543,palt,2021.1.2,51.17926450458927,
,,,,,,,,,,,0,0,0,0,,,,,,,,,,,,,,,,,,,,,,,,,,,,,,,,,,,,,,,,,,,,,,,,,,,,,,,,,,,,,,,,,,,,,,,,,,,4,19.72162004474376,637.9308750973432,None,637.9308750973432,None,928116,2022_Jun_30_1543,palt,2021.1.2,51.17926450458927,
8,szalvéta,puska,,,,,,,,,1,0,1,0,0,0,0,7,,,,,,,,,,,,,661.7650974942808,None,662.7090712478239,None,662.7090712478239,None,,,,,,,,,,,,,,,,,,,,,,,,,,,,,,,,,,,,,,,657.691944125836,None,,,,,,,,,,,,,,,,,,,928116,2022_Jun_30_1543,palt,2021.1.2,51.17926450458927,
1,bagoly,kirakó,,,,,,,,,1,0,1,0,0,1,1,0,,,,,,,,,,,,,668.6921217104828,None,669.6922812567645,None,669.6922812567645,None,,,,,,,,,,,,,,,,,,,,,,,,,,,,,,,,,,,,,,,,,,,,,,,,,,,,,,,,,,,928116,2022_Jun_30_1543,palt,2021.1.2,51.17926450458927,
3,fogó,limonádé,,,,,,,,,1,0,1,0,0,2,2,2,,,,,,,,,,,,,675.6919574991043,None,676.7116628640943,None,676.7116628640943,None,,,,,,,,,,,,,,,,,,,,,,,,,,,,,,,,,,,,,,,,,,,,,,,,,,,,,,,,,,,928116,2022_Jun_30_1543,palt,2021.1.2,51.17926450458927,
2,kötény,tisztás,,,,,,,,,1,0,1,0,0,3,3,1,,,,,,,,,,,,,682.6939059541473,None,683.7052352949831,None,683.7052352949831,None,,,,,,,,,,,,,,,,,,,,,,,,,,,,,,,,,,,,,,,,,,,,,,,,,,,,,,,,,,,928116,2022_Jun_30_1543,palt,2021.1.2,51.17926450458927,
4,mocsár,ananász,,,,,,,,,1,0,1,0,0,4,4,3,,,,,,,,,,,,,689.695247324722,None,690.7066205174633,None,690.7066205174633,None,,,,,,,,,,,,,,,,,,,,,,,,,,,,,,,,,,,,,,,,,,,,,,,,,,,,,,,,,,,928116,2022_Jun_30_1543,palt,2021.1.2,51.17926450458927,
5,karton,hentes,,,,,,,,,1,0,1,0,0,5,5,4,,,,,,,,,,,,,696.6916632870561,None,697.6935902826663,None,697.6935902826663,None,,,,,,,,,,,,,,,,,,,,,,,,,,,,,,,,,,,,,,,,,,,,,,,,,,,,,,,,,,,928116,2022_Jun_30_1543,palt,2021.1.2,51.17926450458927,
10,málna,dominó,,,,,,,,,1,0,1,0,0,6,6,9,,,,,,,,,,,,,703.6935949477629,None,704.7047140482755,None,704.7047140482755,None,,,,,,,,,,,,,,,,,,,,,,,,,,,,,,,,,,,,,,,,,,,,,,,,,,,,,,,,,,,928116,2022_Jun_30_1543,palt,2021.1.2,51.17926450458927,
6,menta,triatlon,,,,,,,,,1,0,1,0,0,7,7,5,,,,,,,,,,,,,710.6940599023073,None,711.7051758927701,None,711.7051758927701,None,,,,,,,,,,,,,,,,,,,,,,,,,,,,,,,,,,,,,,,,,,,,,,,,,,,,,,,,,,,928116,2022_Jun_30_1543,palt,2021.1.2,51.17926450458927,
9,szilva,kecske,,,,,,,,,1,0,1,0,0,8,8,8,,,,,,,,,,,,,717.6948781601241,None,718.7121819337626,None,718.7121819337626,None,,,,,,,,,,,,,,,,,,,,,,,,,,,,,,,,,,,,,,,,,,,,,,,,,,,,,,,,,,,928116,2022_Jun_30_1543,palt,2021.1.2,51.17926450458927,
7,csavarhúzó,hering,,,,,,,,,1,0,1,0,0,9,9,6,,,,,,,,,,,,,724.6929101116839,None,725.711350302663,None,725.711350302663,None,,,,,,,,,,,,,,,,,,,,,,,,,,,,,,,,,,,,,,,,,,,,,,,,,,,,,,,,,,,928116,2022_Jun_30_1543,palt,2021.1.2,51.17926450458927,
7,csavarhúzó,hering,,,,,,,,,1,0,1,0,,,,,0,0,0,6,,,,,,,,,740.7964413404552,None,,,,,,,,,,,csavarhúzó,741.7855912604718,None,4,5.460484771872871,741.7855912604718,None,741.7855912604718,None,741.7855912604718,None,hering,747.2736961990013,None,747.2736961990013,None,down,2.701345227047568,747.2736961990013,None,750.004716722935,None,4,1.8573926841345383,750.004716722935,None,,,,,,,736.7687505753565,None,731.6911513705418,None,u,1.4040896718506701,731.6911513705418,None,733.1285224583844,None,4,3.6159127042337786,733.1285224583844,None,,,,,,,928116,2022_Jun_30_1543,palt,2021.1.2,51.17926450458927,
6,menta,triatlon,,,,,,,,,1,0,1,0,,,,,0,1,1,5,,,,,,,,,751.9005485530652,None,,,,,,,,,,,triatlon,752.9096828108013,None,4,4.855237098832731,752.9096828108013,None,752.9096828108013,None,752.9096828108013,None, menta,757.808872887952,None,757.808872887952,None,down,1.974040918488754,757.808872887952,None,759.8163709410437,None,4,1.7405127500242088,759.8163709410437,None,,,,,,,,,,,,,,,,,,,,,,,,,,,928116,2022_Jun_30_1543,palt,2021.1.2,51.17926450458927,
5,karton,hentes,,,,,,,,,1,0,1,0,,,,,0,2,2,4,,,,,,,,,761.5786140186683,None,,,,,,,,,,,karton,762.5946361349488,None,4,14.404175509611377,762.5946361349488,None,762.5946361349488,None,762.5946361349488,None, ,777.0336073506915,None,777.0336073506915,None,down,1.6291842799982987,777.0336073506915,None,778.6997460321727,None,4,3.349293144667172,778.6997460321727,None,,,,,,,,,,,,,,,,,,,,,,,,,,,928116,2022_Jun_30_1543,palt,2021.1.2,51.17926450458927,
4,mocsár,ananász,,,,,,,,,1,0,1,0,,,,,0,3,3,3,,,,,,,,,782.0874982272508,None,,,,,,,,,,,mocsár,783.1076822310715,None,4,3.706026495259721,783.1076822310715,None,783.1076822310715,None,783.1076822310715,None, ananász,786.8451993675262,None,786.8451993675262,None,down,3.1775519940420054,786.8451993675262,None,790.0691115293739,None,4,1.2745265860721702,790.0691115293739,None,,,,,,,,,,,,,,,,,,,,,,,,,,,928116,2022_Jun_30_1543,palt,2021.1.2,51.17926450458927,
2,kötény,tisztás,,,,,,,,,1,0,1,0,,,,,0,4,4,1,,,,,,,,,791.3773823089577,None,,,,,,,,,,,tisztás,792.3839918167942,None,4,9.611576964132837,792.3839918167942,None,792.3839918167942,None,792.3839918167942,None, kötény,802.0397957558744,None,802.0397957558744,None,down,2.70270401398011,802.0397957558744,None,804.7693862724263,None,4,1.357071103528142,804.7693862724263,None,,,,,,,,,,,,,,,,,,,,,,,,,,,928116,2022_Jun_30_1543,palt,2021.1.2,51.17926450458927,
10,málna,dominó,,,,,,,,,1,0,1,0,,,,,0,5,5,9,,,,,,,,,806.1570013136807,None,,,,,,,,,,,málna,807.1725423030875,None,None,,807.1725423030875,None,807.1725423030875,None,807.1725423030875,None, ,822.1684503919823,None,822.1684503919823,None,down,1.981700383912539,822.1684503919823,None,824.1910428293049,None,4,1.7480776694865199,824.1910428293049,None,,,,,,,,,,,,,,,,,,,,,,,,,,,928116,2022_Jun_30_1543,palt,2021.1.2,51.17926450458927,
1,bagoly,kirakó,,,,,,,,,1,0,1,0,,,,,0,6,6,0,,,,,,,,,825.9610887462914,None,,,,,,,,,,,kirakó,826.9754842991533,None,None,,826.9754842991533,None,826.9754842991533,None,826.9754842991533,None, bagoly,841.9903625339211,None,841.9903625339211,None,down,3.0558471067779465,841.9903625339211,None,845.0798810587148,None,4,0.6731111337867333,845.0798810587148,None,,,,,,,,,,,,,,,,,,,,,,,,,,,928116,2022_Jun_30_1543,palt,2021.1.2,51.17926450458927,
8,szalvéta,puska,,,,,,,,,1,0,1,0,,,,,0,7,7,7,,,,,,,,,845.7732523928717,None,,,,,,,,,,,puska,846.7889249379805,None,4,4.290037718863459,846.7889249379805,None,846.7889249379805,None,846.7889249379805,None, szalvéta,851.1157855026104,None,851.1157855026104,None,down,5.178055513402796,851.1157855026104,None,856.3199814142572,None,4,1.1977549692528555,856.3199814142572,None,,,,,,,,,,,,,,,,,,,,,,,,,,,928116,2022_Jun_30_1543,palt,2021.1.2,51.17926450458927,
9,szilva,kecske,,,,,,,,,1,0,1,0,,,,,0,8,8,8,,,,,,,,,857.5479935733601,None,,,,,,,,,,,kecske,858.5512137335318,None,None,,858.5512137335318,None,858.5512137335318,None,858.5512137335318,None, ,873.5442384821799,None,873.5442384821799,None,down,2.26941270797397,873.5442384821799,None,875.8491423065716,None,4,0.10347897971223574,875.8491423065716,None,,,,,,,,,,,,,,,,,,,,,,,,,,,928116,2022_Jun_30_1543,palt,2021.1.2,51.17926450458927,
3,fogó,limonádé,,,,,,,,,1,0,1,0,,,,,0,9,9,2,,,,,,,,,875.9900076756312,None,,,,,,,,,,,limonádé,877.0063156067918,None,None,,877.0063156067918,None,877.0063156067918,None,877.0063156067918,None, ,892.011356709394,None,892.011356709394,None,down,2.2979836211598013,892.011356709394,None,894.3511290153983,None,4,2.2804500138154253,894.3511290153983,None,,,,,,,,,,,,,,,,,,,,,,,,,,,928116,2022_Jun_30_1543,palt,2021.1.2,51.17926450458927,
,,,,,,,,,,,1,0,1,0,,,,,,,,,,,,,,,,,,,,,,,,,,,,,,,,,,,,,,,,,,,,,,,,,,,,,,,,,,,,,,,,,,,,,,,,,,,4,152.7284967070591,896.6992627282452,None,896.6992627282452,None,928116,2022_Jun_30_1543,palt,2021.1.2,51.17926450458927,
8,szalvéta,puska,,,,,,,,,2,0,2,0,0,0,0,7,,,,,,,,,,,,,1053.4659541302826,None,1054.4732347899117,None,1054.4732347899117,None,,,,,,,,,,,,,,,,,,,,,,,,,,,,,,,,,,,,,,,1049.4537897372793,None,,,,,,,,,,,,,,,,,,,928116,2022_Jun_30_1543,palt,2021.1.2,51.17926450458927,
1,bagoly,kirakó,,,,,,,,,2,0,2,0,0,1,1,0,,,,,,,,,,,,,1060.4542543808348,None,1061.4576020536333,None,1061.4576020536333,None,,,,,,,,,,,,,,,,,,,,,,,,,,,,,,,,,,,,,,,,,,,,,,,,,,,,,,,,,,,928116,2022_Jun_30_1543,palt,2021.1.2,51.17926450458927,
10,málna,dominó,,,,,,,,,2,0,2,0,0,2,2,9,,,,,,,,,,,,,1067.4583226554387,None,1068.4699421652476,None,1068.4699421652476,None,,,,,,,,,,,,,,,,,,,,,,,,,,,,,,,,,,,,,,,,,,,,,,,,,,,,,,,,,,,928116,2022_Jun_30_1543,palt,2021.1.2,51.17926450458927,
2,kötény,tisztás,,,,,,,,,2,0,2,0,0,3,3,1,,,,,,,,,,,,,1074.4561956827238,None,1075.4662418111984,None,1075.4662418111984,None,,,,,,,,,,,,,,,,,,,,,,,,,,,,,,,,,,,,,,,,,,,,,,,,,,,,,,,,,,,928116,2022_Jun_30_1543,palt,2021.1.2,51.17926450458927,
5,karton,hentes,,,,,,,,,2,0,2,0,0,4,4,4,,,,,,,,,,,,,1081.458090644679,None,1082.4685923975048,None,1082.4685923975048,None,,,,,,,,,,,,,,,,,,,,,,,,,,,,,,,,,,,,,,,,,,,,,,,,,,,,,,,,,,,928116,2022_Jun_30_1543,palt,2021.1.2,51.17926450458927,
3,fogó,limonádé,,,,,,,,,2,0,2,0,0,5,5,2,,,,,,,,,,,,,1088.454146461605,None,1089.4669732982293,None,1089.4669732982293,None,,,,,,,,,,,,,,,,,,,,,,,,,,,,,,,,,,,,,,,,,,,,,,,,,,,,,,,,,,,928116,2022_Jun_30_1543,palt,2021.1.2,51.17926450458927,
7,csavarhúzó,hering,,,,,,,,,2,0,2,0,0,6,6,6,,,,,,,,,,,,,1095.4553923532221,None,1096.474284747499,None,1096.474284747499,None,,,,,,,,,,,,,,,,,,,,,,,,,,,,,,,,,,,,,,,,,,,,,,,,,,,,,,,,,,,928116,2022_Jun_30_1543,palt,2021.1.2,51.17926450458927,
6,menta,triatlon,,,,,,,,,2,0,2,0,0,7,7,5,,,,,,,,,,,,,1102.455940346481,None,1103.4665960474813,None,1103.4665960474813,None,,,,,,,,,,,,,,,,,,,,,,,,,,,,,,,,,,,,,,,,,,,,,,,,,,,,,,,,,,,928116,2022_Jun_30_1543,palt,2021.1.2,51.17926450458927,
9,szilva,kecske,,,,,,,,,2,0,2,0,0,8,8,8,,,,,,,,,,,,,1109.4614373844524,None,1110.4694094112929,None,1110.4694094112929,None,,,,,,,,,,,,,,,,,,,,,,,,,,,,,,,,,,,,,,,,,,,,,,,,,,,,,,,,,,,928116,2022_Jun_30_1543,palt,2021.1.2,51.17926450458927,
4,mocsár,ananász,,,,,,,,,2,0,2,0,0,9,9,3,,,,,,,,,,,,,1116.4533381560032,None,1117.4702662339114,None,1117.4702662339114,None,,,,,,,,,,,,,,,,,,,,,,,,,,,,,,,,,,,,,,,,,,,,,,,,,,,,,,,,,,,928116,2022_Jun_30_1543,palt,2021.1.2,51.17926450458927,
10,málna,dominó,,,,,,,,,2,0,2,0,,,,,0,0,0,9,,,,,,,,,1132.3771913510282,None,,,,,,,,,,,málna,1133.3758583776362,None,4,5.090640946858912,1133.3758583776362,None,1133.3758583776362,None,1133.3758583776362,None, dominó,1138.5038589673059,None,1138.5038589673059,None,down,3.8985186143545434,1138.5038589673059,None,1142.4498066784145,None,4,1.1686811587278498,1142.4498066784145,None,,,,,,,1128.3516334677697,None,1123.4579220792075,None,u,1.5690798067225842,1123.4579220792075,None,1125.0596678202855,None,4,3.2498920807847753,1125.0596678202855,None,,,,,,,928116,2022_Jun_30_1543,palt,2021.1.2,51.17926450458927,
2,kötény,tisztás,,,,,,,,,2,0,2,0,,,,,0,1,1,1,,,,,,,,,1143.6456809920346,None,,,,,,,,,,,tisztás,1144.6532782561699,None,4,4.270089457873837,1144.6532782561699,None,1144.6532782561699,None,1144.6532782561699,None, kötény,1148.9444831820147,None,1148.9444831820147,None,down,2.6898840194917284,1148.9444831820147,None,1151.6691535774444,None,4,0.9400398337020306,1151.6691535774444,None,,,,,,,,,,,,,,,,,,,,,,,,,,,928116,2022_Jun_30_1543,palt,2021.1.2,51.17926450458927,
5,karton,hentes,,,,,,,,,2,0,2,0,,,,,0,2,2,4,,,,,,,,,1152.6399833549367,None,,,,,,,,,,,karton,1153.6563870760583,None,4,3.8847951463103527,1153.6563870760583,None,1153.6563870760583,None,1153.6563870760583,None, harcsa,1157.566255557671,None,1157.566255557671,None,down,3.6199760027375305,1157.566255557671,None,1161.2196759437793,None,4,5.851469256391283,1161.2196759437793,None,,,,,,,,,,,,,,,,,,,,,,,,,,,928116,2022_Jun_30_1543,palt,2021.1.2,51.17926450458927,
6,menta,triatlon,,,,,,,,,2,0,2,0,,,,,0,3,3,5,,,,,,,,,1167.0960739175061,None,,,,,,,,,,,triatlon,1168.1106405238825,None,None,,1168.1106405238825,None,1168.1106405238825,None,1168.1106405238825,None, menta,1183.114596525178,None,1183.114596525178,None,down,2.423362115951022,1183.114596525178,None,1185.5806417803396,None,4,0.529575152831967,1185.5806417803396,None,,,,,,,,,,,,,,,,,,,,,,,,,,,928116,2022_Jun_30_1543,palt,2021.1.2,51.17926450458927,
9,szilva,kecske,,,,,,,,,2,0,2,0,,,,,0,4,4,8,,,,,,,,,1186.1398424690415,None,,,,,,,,,,,kecske,1187.1584670868033,None,4,4.0022541743237525,1187.1584670868033,None,1187.1584670868033,None,1187.1584670868033,None, szilva,1191.2039387093391,None,1191.2039387093391,None,down,3.0218988930573687,1191.2039387093391,None,1194.2560751988494,None,4,1.1017504061746877,1194.2560751988494,None,,,,,,,,,,,,,,,,,,,,,,,,,,,928116,2022_Jun_30_1543,palt,2021.1.2,51.17926450458927,
1,bagoly,kirakó,,,,,,,,,2,0,2,0,,,,,0,5,5,0,,,,,,,,,1195.3907167080033,None,,,,,,,,,,,kirakó,1196.4026164345705,None,4,13.658210506546311,1196.4026164345705,None,1196.4026164345705,None,1196.4026164345705,None, bagoly,1210.0860212578991,None,1210.0860212578991,None,down,2.5074837468127953,1210.0860212578991,None,1212.6281442746113,None,4,0.8474193311558338,1212.6281442746113,None,,,,,,,,,,,,,,,,,,,,,,,,,,,928116,2022_Jun_30_1543,palt,2021.1.2,51.17926450458927,
7,csavarhúzó,hering,,,,,,,,,2,0,2,0,,,,,0,6,6,6,,,,,,,,,1213.5102852923737,None,,,,,,,,,,,csavarhúzó,1214.5257149414829,None,4,10.515792593563674,1214.5257149414829,None,1214.5257149414829,None,1214.5257149414829,None, hering,1225.075679051355,None,1225.075679051355,None,down,2.3497767596127233,1225.075679051355,None,1227.4668342783698,None,4,0.9208093754714355,1227.4668342783698,None,,,,,,,,,,,,,,,,,,,,,,,,,,,928116,2022_Jun_30_1543,palt,2021.1.2,51.17926450458927,
4,mocsár,ananász,,,,,,,,,2,0,2,0,,,,,0,7,7,3,,,,,,,,,1228.427862689423,None,,,,,,,,,,,mocsár,1229.4512450829789,None,4,2.78712483299023,1229.4512450829789,None,1229.4512450829789,None,1229.4512450829789,None, ananász,1232.271617743274,None,1232.271617743274,None,down,2.8977575817116303,1232.271617743274,None,1235.2015069503686,None,4,1.1648271675367141,1235.2015069503686,None,,,,,,,,,,,,,,,,,,,,,,,,,,,928116,2022_Jun_30_1543,palt,2021.1.2,51.17926450458927,
8,szalvéta,puska,,,,,,,,,2,0,2,0,,,,,0,8,8,7,,,,,,,,,1236.3887894013897,None,,,,,,,,,,,puska,1237.408969673139,None,None,,1237.408969673139,None,1237.408969673139,None,1237.408969673139,None, ,1252.404586971068,None,1252.404586971068,None,down,1.9645315870438935,1252.404586971068,None,1254.4071642810304,None,4,2.3248859850573353,1254.4071642810304,None,,,,,,,,,,,,,,,,,,,,,,,,,,,928116,2022_Jun_30_1543,palt,2021.1.2,51.17926450458927,
3,fogó,limonádé,,,,,,,,,2,0,2,0,,,,,0,9,9,2,,,,,,,,,1256.7606955098017,None,,,,,,,,,,,limonádé,1257.7850022143539,None,4,6.579930508727557,1257.7850022143539,None,1257.7850022143539,None,1257.7850022143539,None, fogó,1264.402678946848,None,1264.402678946848,None,down,3.0222071003954625,1264.402678946848,None,1267.4615857345052,None,4,1.1033775916293962,1267.4615857345052,None,,,,,,,,,,,,,,,,,,,,,,,,,,,928116,2022_Jun_30_1543,palt,2021.1.2,51.17926450458927,
,,,,,,,,,,,2,0,2,0,,,,,,,,,,,,,,,,,,,,,,,,,,,,,,,,,,,,,,,,,,,,,,,,,,,,,,,,,,,,,,,,,,,,,,,,,,,4,7.274210914576543,1268.6157052629715,None,1268.6157052629715,None,928116,2022_Jun_30_1543,palt,2021.1.2,51.17926450458927,
10,málna,dominó,,,,,,,,,3,0,3,0,0,0,0,9,,,,,,,,,,,,,1279.9222443589533,None,1280.9249541576573,None,1280.9249541576573,None,,,,,,,,,,,,,,,,,,,,,,,,,,,,,,,,,,,,,,,1275.9104774321313,None,,,,,,,,,,,,,,,,,,,928116,2022_Jun_30_1543,palt,2021.1.2,51.17926450458927,
1,bagoly,kirakó,,,,,,,,,3,0,3,0,0,1,1,0,,,,,,,,,,,,,1286.9220568221062,None,1287.9181574239628,None,1287.9181574239628,None,,,,,,,,,,,,,,,,,,,,,,,,,,,,,,,,,,,,,,,,,,,,,,,,,,,,,,,,,,,928116,2022_Jun_30_1543,palt,2021.1.2,51.17926450458927,
5,karton,hentes,,,,,,,,,3,0,3,0,0,2,2,4,,,,,,,,,,,,,1293.918089624567,None,1294.9182668982103,None,1294.9182668982103,None,,,,,,,,,,,,,,,,,,,,,,,,,,,,,,,,,,,,,,,,,,,,,,,,,,,,,,,,,,,928116,2022_Jun_30_1543,palt,2021.1.2,51.17926450458927,
7,csavarhúzó,hering,,,,,,,,,3,0,3,0,0,3,3,6,,,,,,,,,,,,,1300.9199376245524,None,1301.9294506880688,None,1301.9294506880688,None,,,,,,,,,,,,,,,,,,,,,,,,,,,,,,,,,,,,,,,,,,,,,,,,,,,,,,,,,,,928116,2022_Jun_30_1543,palt,2021.1.2,51.17926450458927,
8,szalvéta,puska,,,,,,,,,3,0,3,0,0,4,4,7,,,,,,,,,,,,,1307.921180095087,None,1308.927079264322,None,1308.927079264322,None,,,,,,,,,,,,,,,,,,,,,,,,,,,,,,,,,,,,,,,,,,,,,,,,,,,,,,,,,,,928116,2022_Jun_30_1543,palt,2021.1.2,51.17926450458927,
4,mocsár,ananász,,,,,,,,,3,0,3,0,0,5,5,3,,,,,,,,,,,,,1314.9125496677152,None,1315.926998713665,None,1315.926998713665,None,,,,,,,,,,,,,,,,,,,,,,,,,,,,,,,,,,,,,,,,,,,,,,,,,,,,,,,,,,,928116,2022_Jun_30_1543,palt,2021.1.2,51.17926450458927,
9,szilva,kecske,,,,,,,,,3,0,3,0,0,6,6,8,,,,,,,,,,,,,1321.9177400533808,None,1322.917862278904,None,1322.917862278904,None,,,,,,,,,,,,,,,,,,,,,,,,,,,,,,,,,,,,,,,,,,,,,,,,,,,,,,,,,,,928116,2022_Jun_30_1543,palt,2021.1.2,51.17926450458927,
6,menta,triatlon,,,,,,,,,3,0,3,0,0,7,7,5,,,,,,,,,,,,,1328.9188307528093,None,1329.9289462356974,None,1329.9289462356974,None,,,,,,,,,,,,,,,,,,,,,,,,,,,,,,,,,,,,,,,,,,,,,,,,,,,,,,,,,,,928116,2022_Jun_30_1543,palt,2021.1.2,51.17926450458927,
2,kötény,tisztás,,,,,,,,,3,0,3,0,0,8,8,1,,,,,,,,,,,,,1335.9174278029677,None,1336.9237101320905,None,1336.9237101320905,None,,,,,,,,,,,,,,,,,,,,,,,,,,,,,,,,,,,,,,,,,,,,,,,,,,,,,,,,,,,928116,2022_Jun_30_1543,palt,2021.1.2,51.17926450458927,
3,fogó,limonádé,,,,,,,,,3,0,3,0,0,9,9,2,,,,,,,,,,,,,1342.927388093667,None,1343.932265917916,None,1343.932265917916,None,,,,,,,,,,,,,,,,,,,,,,,,,,,,,,,,,,,,,,,,,,,,,,,,,,,,,,,,,,,928116,2022_Jun_30_1543,palt,2021.1.2,51.17926450458927,
3,fogó,limonádé,,,,,,,,,3,0,3,0,,,,,0,0,0,2,,,,,,,,,1376.4712580332853,None,,,,,,,,,,,limonádé,1377.4521597527782,None,4,3.170450785110006,1377.4521597527782,None,1377.4521597527782,None,1377.4521597527782,None, fogó,1380.6533703140594,None,1380.6533703140594,None,down,2.754296553306631,1380.6533703140594,None,1383.4377209700324,None,4,0.9700827401393326,1383.4377209700324,None,,,,,,,1372.4415575448802,None,1349.9212693539157,None,u,1.423025296011474,1349.9212693539157,None,1351.3753116283915,None,4,21.03045778896194,1351.3753116283915,None,,,,,,,928116,2022_Jun_30_1543,palt,2021.1.2,51.17926450458927,
4,mocsár,ananász,,,,,,,,,3,0,3,0,,,,,0,1,1,3,,,,,,,,,1384.4446349531354,None,,,,,,,,,,,mocsár,1385.4584669624019,None,4,2.7820675580587704,1385.4584669624019,None,1385.4584669624019,None,1385.4584669624019,None, ananász,1388.2777716267592,None,1388.2777716267592,None,down,2.9376457064936403,1388.2777716267592,None,1391.2569338875037,None,4,0.9285297981405165,1391.2569338875037,None,,,,,,,,,,,,,,,,,,,,,,,,,,,928116,2022_Jun_30_1543,palt,2021.1.2,51.17926450458927,
6,menta,triatlon,,,,,,,,,3,0,3,0,,,,,0,2,2,5,,,,,,,,,1392.208859763472,None,,,,,,,,,,,triatlon,1393.2180024183763,None,None,,1393.2180024183763,None,1393.2180024183763,None,1393.2180024183763,None, ,1408.230298056078,None,1408.230298056078,None,down,2.9209894481755327,1408.230298056078,None,1411.2006336444174,None,4,1.4386766926909331,1411.2006336444174,None,,,,,,,,,,,,,,,,,,,,,,,,,,,928116,2022_Jun_30_1543,palt,2021.1.2,51.17926450458927,
10,málna,dominó,,,,,,,,,3,0,3,0,,,,,0,3,3,9,,,,,,,,,1412.6758318176871,None,,,,,,,,,,,málna,1413.6975123842712,None,None,,1413.6975123842712,None,1413.6975123842712,None,1413.6975123842712,None, ,1428.7000166077341,None,1428.7000166077341,None,down,2.2110623107582796,1428.7000166077341,None,1430.9375617347687,None,4,2.8774302039382746,1430.9375617347687,None,,,,,,,,,,,,,,,,,,,,,,,,,,,928116,2022_Jun_30_1543,palt,2021.1.2,51.17926450458927,
7,csavarhúzó,hering,,,,,,,,,3,0,3,0,,,,,0,4,4,6,,,,,,,,,1433.8383883275528,None,,,,,,,,,,,csavarhúzó,1434.8448158966494,None,4,8.872922477312386,1434.8448158966494,None,1434.8448158966494,None,1434.8448158966494,None,hering,1443.7559893610887,None,1443.7559893610887,None,down,2.4347782275581267,1443.7559893610887,None,1446.226295403816,None,4,1.0157873064745218,1446.226295403816,None,,,,,,,,,,,,,,,,,,,,,,,,,,,928116,2022_Jun_30_1543,palt,2021.1.2,51.17926450458927,
9,szilva,kecske,,,,,,,,,3,0,3,0,,,,,0,5,5,8,,,,,,,,,1447.2698913468048,None,,,,,,,,,,,kecske,1448.2757503962202,None,4,4.863851353875361,1448.2757503962202,None,1448.2757503962202,None,1448.2757503962202,None, szalvéta,1453.1801140647003,None,1453.1801140647003,None,down,4.546758877986576,1453.1801140647003,None,1457.7559582604445,None,4,3.382684967946261,1457.7559582604445,None,,,,,,,,,,,,,,,,,,,,,,,,,,,928116,2022_Jun_30_1543,palt,2021.1.2,51.17926450458927,
1,bagoly,kirakó,,,,,,,,,3,0,3,0,,,,,0,6,6,0,,,,,,,,,1461.1651216905739,None,,,,,,,,,,,kirakó,1462.1829557300953,None,4,12.797581489896402,1462.1829557300953,None,1462.1829557300953,None,1462.1829557300953,None, bagoly,1475.0125198733003,None,1475.0125198733003,None,down,2.4419161352707306,1475.0125198733003,None,1477.4920484995673,None,4,1.3073079038003925,1477.4920484995673,None,,,,,,,,,,,,,,,,,,,,,,,,,,,928116,2022_Jun_30_1543,palt,2021.1.2,51.17926450458927,
8,szalvéta,puska,,,,,,,,,3,0,3,0,,,,,0,7,7,7,,,,,,,,,1478.838624381402,None,,,,,,,,,,,puska,1479.8663742377103,None,4,6.244864351450815,1479.8663742377103,None,1479.8663742377103,None,1479.8663742377103,None, szalvéta,1486.1532113897993,None,1486.1532113897993,None,down,4.373414489411516,1486.1532113897993,None,1490.5661308441195,None,4,0.6580375869816635,1490.5661308441195,None,,,,,,,,,,,,,,,,,,,,,,,,,,,928116,2022_Jun_30_1543,palt,2021.1.2,51.17926450458927,
2,kötény,tisztás,,,,,,,,,3,0,3,0,,,,,0,8,8,1,,,,,,,,,1491.2656473535753,None,,,,,,,,,,,tisztás,1492.27956457861,None,4,4.953570477780886,1492.27956457861,None,1492.27956457861,None,1492.27956457861,None, kötény,1497.2881707474735,None,1497.2881707474735,None,down,2.7263081550918287,1497.2881707474735,None,1500.048621495269,None,4,0.659835514932638,1500.048621495269,None,,,,,,,,,,,,,,,,,,,,,,,,,,,928116,2022_Jun_30_1543,palt,2021.1.2,51.17926450458927,
5,karton,hentes,,,,,,,,,3,0,3,0,,,,,0,9,9,4,,,,,,,,,1500.7367131849169,None,,,,,,,,,,,karton,1501.7517997939867,None,None,,1501.7517997939867,None,1501.7517997939867,None,1501.7517997939867,None, ,1516.7456953605288,None,1516.7456953605288,None,down,2.0842696699110093,1516.7456953605288,None,1518.8582305353484,None,4,1.3006707163876854,1518.8582305353484,None,,,,,,,,,,,,,,,,,,,,,,,,,,,928116,2022_Jun_30_1543,palt,2021.1.2,51.17926450458927,
