itemno,wordA,wordB,enc_gyak.thisRepN,enc_gyak.thisTrialN,enc_gyak.thisN,enc_gyak.thisIndex,rec_gyak.thisRepN,rec_gyak.thisTrialN,rec_gyak.thisN,rec_gyak.thisIndex,repeat_task.thisRepN,repeat_task.thisTrialN,repeat_task.thisN,repeat_task.thisIndex,enc_loop.thisRepN,enc_loop.thisTrialN,enc_loop.thisN,enc_loop.thisIndex,test_loop.thisRepN,test_loop.thisTrialN,test_loop.thisN,test_loop.thisIndex,int.started,int.stopped,int_key.keys,int_key.rt,int_key.started,int_key.stopped,prepare_gyak_text.started,prepare_gyak_text.stopped,fix.started,fix.stopped,word1.started,word1.stopped,word2.started,word2.stopped,gykrec_inst.started,gykrec_inst.stopped,gyakrec_inst.keys,gyakrec_inst.rt,gyakrec_inst.started,gyakrec_inst.stopped,cueword,cueword1.started,cueword1.stopped,cue_resp.keys,cue_resp.rt,cue_resp.started,cue_resp.stopped,cue_cont_text.started,cue_cont_text.stopped,cue_space.started,cue_space.stopped,test_ansbox.text,test_ansbox.started,test_ansbox.stopped,ans_text.started,ans_text.stopped,ans_continue.keys,ans_continue.rt,ans_continue.started,ans_continue.stopped,feedback_text.started,feedback_text.stopped,feedback_cont.keys,feedback_cont.rt,feedback_cont.started,feedback_cont.stopped,main_prep.started,main_prep.stopped,main_prep_resp.keys,main_prep_resp.rt,main_prep_resp.started,main_prep_resp.stopped,preparation.started,preparation.stopped,break_text.started,break_text.stopped,key_resp.keys,key_resp.rt,key_resp.started,key_resp.stopped,test_instruction.started,test_instruction.stopped,test_i_key.keys,test_i_key.rt,test_i_key.started,test_i_key.stopped,rep_routine.keys,rep_routine.rt,rep_routine.started,rep_routine.stopped,encrep_textbox.started,encrep_textbox.stopped,end_text.started,end_text.stopped,Résztvevő kódja,date,expName,psychopyVersion,frameRate,
,,,,,,,,,,,,,,,,,,,,,,,29.498886285349727,None,4,62.60557927144691,29.498886285349727,None,,,,,,,,,,,,,,,,,,,,,,,,,,,,,,,,,,,,,,,,,,,,,,,,,,,,,,,,,,,,,,,,,,,,,954830,2022_Jun_15_1008,palt,2021.1.2,59.82655060240474,
3,majoránna,szikla,0,0,0,2,,,,,,,,,,,,,,,,,,,,,,,92.13053754996508,None,95.31648372253403,None,96.15204583248124,None,96.15204583248124,None,,,,,,,,,,,,,,,,,,,,,,,,,,,,,,,,,,,,,,,,,,,,,,,,,,,,,,,,,,,,,954830,2022_Jun_15_1008,palt,2021.1.2,59.82655060240474,
2,lepke,szintetizátor,0,1,1,1,,,,,,,,,,,,,,,,,,,,,,,,,102.14036909025162,None,103.16025951644406,None,103.16025951644406,None,,,,,,,,,,,,,,,,,,,,,,,,,,,,,,,,,,,,,,,,,,,,,,,,,,,,,,,,,,,,,954830,2022_Jun_15_1008,palt,2021.1.2,59.82655060240474,
4,kard,harcsa,0,2,2,3,,,,,,,,,,,,,,,,,,,,,,,,,109.1386778363958,None,110.15483276266605,None,110.15483276266605,None,,,,,,,,,,,,,,,,,,,,,,,,,,,,,,,,,,,,,,,,,,,,,,,,,,,,,,,,,,,,,954830,2022_Jun_15_1008,palt,2021.1.2,59.82655060240474,
1,sapka,beton,0,3,3,0,,,,,,,,,,,,,,,,,,,,,,,,,116.13935334281996,None,117.15473572863266,None,117.15473572863266,None,,,,,,,,,,,,,,,,,,,,,,,,,,,,,,,,,,,,,,,,,,,,,,,,,,,,,,,,,,,,,954830,2022_Jun_15_1008,palt,2021.1.2,59.82655060240474,
,,,,,,,,,,,,,,,,,,,,,,,,,,,,,,,,,,,,,123.13942674035206,None,4,8.421624785289168,123.13942674035206,None,,,,,,,,,,,,,,,,,,,,,,,,,,,,,,,,,,,,,,,,,,,,,,,,,,,,,,,954830,2022_Jun_15_1008,palt,2021.1.2,59.82655060240474,
4,kard,harcsa,,,,,0,0,0,3,,,,,,,,,,,,,,,,,,,,,131.60091168479994,None,,,,,,,,,,,kard,132.61240897607058,None,4,14.199389742687345,132.61240897607058,None,132.61240897607058,None,132.61240897607058,None, harcsa,146.94274741970003,None,146.94274741970003,None,down,12.756825817283243,146.94274741970003,None,159.7743006553501,None,4,33.95105191739276,159.7743006553501,None,,,,,,,,,,,,,,,,,,,,,,,,,,,,,954830,2022_Jun_15_1008,palt,2021.1.2,59.82655060240474,
2,lepke,szintetizátor,,,,,0,1,1,1,,,,,,,,,,,,,,,,,,,,,193.7864488833584,None,,,,,,,,,,,szintetizátor,194.8039122140035,None,None,,194.8039122140035,None,194.8039122140035,None,194.8039122140035,None, ,209.7953178579919,None,209.7953178579919,None,down,2.1436623386107385,209.7953178579919,None,211.9890258219093,None,4,5.81994522549212,211.9890258219093,None,,,,,,,,,,,,,,,,,,,,,,,,,,,,,954830,2022_Jun_15_1008,palt,2021.1.2,59.82655060240474,
3,majoránna,szikla,,,,,0,2,2,2,,,,,,,,,,,,,,,,,,,,,217.8543873387389,None,,,,,,,,,,,majoránna,218.87037743162364,None,None,,218.87037743162364,None,218.87037743162364,None,218.87037743162364,None, ,233.8575369026512,None,233.8575369026512,None,down,2.5773019306361675,233.8575369026512,None,236.46358268382028,None,4,8.530044169165194,236.46358268382028,None,,,,,,,,,,,,,,,,,,,,,,,,,,,,,954830,2022_Jun_15_1008,palt,2021.1.2,59.82655060240474,
1,sapka,beton,,,,,0,3,3,0,,,,,,,,,,,,,,,,,,,,,245.0318638687022,None,,,,,,,,,,,sapka,246.05589472549036,None,4,7.308594729285687,246.05589472549036,None,246.05589472549036,None,246.05589472549036,None,beton,253.4093832555227,None,253.4093832555227,None,down,2.865277234464884,253.4093832555227,None,256.3271300997585,None,4,3.2103521027602255,256.3271300997585,None,,,,,,,,,,,,,,,,,,,,,,,,,,,,,954830,2022_Jun_15_1008,palt,2021.1.2,59.82655060240474,
,,,,,,,,,,,,,,,,,,,,,,,,,,,,,,,,,,,,,,,,,,,,,,,,,,,,,,,,,,,,,,,,,,,,,259.5756193851121,None,4,80.01305170217529,259.5756193851121,None,,,,,,,,,,,,,,,,,,,,,,,954830,2022_Jun_15_1008,palt,2021.1.2,59.82655060240474,
9,szilva,kecske,,,,,,,,,0,0,0,0,0,0,0,8,,,,,,,,,,,,,343.6582087390125,None,344.6347681726329,None,344.6347681726329,None,,,,,,,,,,,,,,,,,,,,,,,,,,,,,,,,,,,,,,,339.6142728389241,None,,,,,,,,,,,,,,,,,,,,,954830,2022_Jun_15_1008,palt,2021.1.2,59.82655060240474,
1,bagoly,kirakó,,,,,,,,,0,0,0,0,0,1,1,0,,,,,,,,,,,,,350.6226295856759,None,351.6256233351305,None,351.6256233351305,None,,,,,,,,,,,,,,,,,,,,,,,,,,,,,,,,,,,,,,,,,,,,,,,,,,,,,,,,,,,,,954830,2022_Jun_15_1008,palt,2021.1.2,59.82655060240474,
6,menta,triatlon,,,,,,,,,0,0,0,0,0,2,2,5,,,,,,,,,,,,,357.6179517353885,None,358.63643299089745,None,358.63643299089745,None,,,,,,,,,,,,,,,,,,,,,,,,,,,,,,,,,,,,,,,,,,,,,,,,,,,,,,,,,,,,,954830,2022_Jun_15_1008,palt,2021.1.2,59.82655060240474,
7,csavarhúzó,hering,,,,,,,,,0,0,0,0,0,3,3,6,,,,,,,,,,,,,364.6197449997999,None,365.63866353034973,None,365.63866353034973,None,,,,,,,,,,,,,,,,,,,,,,,,,,,,,,,,,,,,,,,,,,,,,,,,,,,,,,,,,,,,,954830,2022_Jun_15_1008,palt,2021.1.2,59.82655060240474,
2,kötény,tisztás,,,,,,,,,0,0,0,0,0,4,4,1,,,,,,,,,,,,,371.62130718585104,None,372.6346176452935,None,372.6346176452935,None,,,,,,,,,,,,,,,,,,,,,,,,,,,,,,,,,,,,,,,,,,,,,,,,,,,,,,,,,,,,,954830,2022_Jun_15_1008,palt,2021.1.2,59.82655060240474,
4,mocsár,ananász,,,,,,,,,0,0,0,0,0,5,5,3,,,,,,,,,,,,,378.6156226070598,None,379.6254777838476,None,379.6254777838476,None,,,,,,,,,,,,,,,,,,,,,,,,,,,,,,,,,,,,,,,,,,,,,,,,,,,,,,,,,,,,,954830,2022_Jun_15_1008,palt,2021.1.2,59.82655060240474,
3,fogó,limonádé,,,,,,,,,0,0,0,0,0,6,6,2,,,,,,,,,,,,,385.6175468051806,None,386.62974572740495,None,386.62974572740495,None,,,,,,,,,,,,,,,,,,,,,,,,,,,,,,,,,,,,,,,,,,,,,,,,,,,,,,,,,,,,,954830,2022_Jun_15_1008,palt,2021.1.2,59.82655060240474,
10,málna,dominó,,,,,,,,,0,0,0,0,0,7,7,9,,,,,,,,,,,,,392.6192831546068,None,393.62858847202733,None,393.62858847202733,None,,,,,,,,,,,,,,,,,,,,,,,,,,,,,,,,,,,,,,,,,,,,,,,,,,,,,,,,,,,,,954830,2022_Jun_15_1008,palt,2021.1.2,59.82655060240474,
8,szalvéta,puska,,,,,,,,,0,0,0,0,0,8,8,7,,,,,,,,,,,,,399.6213578796014,None,400.64181558182463,None,400.64181558182463,None,,,,,,,,,,,,,,,,,,,,,,,,,,,,,,,,,,,,,,,,,,,,,,,,,,,,,,,,,,,,,954830,2022_Jun_15_1008,palt,2021.1.2,59.82655060240474,
5,karton,hentes,,,,,,,,,0,0,0,0,0,9,9,4,,,,,,,,,,,,,406.62112680170685,None,407.63280292227864,None,407.63280292227864,None,,,,,,,,,,,,,,,,,,,,,,,,,,,,,,,,,,,,,,,,,,,,,,,,,,,,,,,,,,,,,954830,2022_Jun_15_1008,palt,2021.1.2,59.82655060240474,
1,bagoly,kirakó,,,,,,,,,0,0,0,0,,,,,0,0,0,0,,,,,,,,,439.342000879813,None,,,,,,,,,,,bagoly,440.330375764519,None,None,,440.330375764519,None,440.330375764519,None,440.330375764519,None,,455.33985369000584,None,455.33985369000584,None,down,2.4684359417296946,455.33985369000584,None,457.8489907528274,None,4,2.608298401813954,457.8489907528274,None,,,,,,,435.3247953732498,None,413.6202354570851,None,u,12.844435438979417,413.6202354570851,None,426.52412384795025,None,4,8.76956962281838,426.52412384795025,None,,,,,,,,,954830,2022_Jun_15_1008,palt,2021.1.2,59.82655060240474,
2,kötény,tisztás,,,,,,,,,0,0,0,0,,,,,0,1,1,1,,,,,,,,,460.48833227716386,None,,,,,,,,,,,tisztás,461.5107698473148,None,None,,461.5107698473148,None,461.5107698473148,None,461.5107698473148,None, ,476.51564207626507,None,476.51564207626507,None,down,1.2605510535649955,476.51564207626507,None,477.8044396811165,None,4,1.1076089004054666,477.8044396811165,None,,,,,,,,,,,,,,,,,,,,,,,,,,,,,954830,2022_Jun_15_1008,palt,2021.1.2,59.82655060240474,
10,málna,dominó,,,,,,,,,0,0,0,0,,,,,0,2,2,9,,,,,,,,,478.93813799135387,None,,,,,,,,,,,dominó,479.96778500499204,None,None,,479.96778500499204,None,479.96778500499204,None,479.96778500499204,None, ,494.9534569317475,None,494.9534569317475,None,down,1.2863785959780216,494.9534569317475,None,496.2832576446235,None,4,0.9815147016197443,496.2832576446235,None,,,,,,,,,,,,,,,,,,,,,,,,,,,,,954830,2022_Jun_15_1008,palt,2021.1.2,59.82655060240474,
4,mocsár,ananász,,,,,,,,,0,0,0,0,,,,,0,3,3,3,,,,,,,,,497.288206692785,None,,,,,,,,,,,mocsár,498.31958570191637,None,4,3.797171146143228,498.31958570191637,None,498.31958570191637,None,498.31958570191637,None,ananász,502.1415275898762,None,502.1415275898762,None,down,2.2266049957834184,502.1415275898762,None,504.39770402526483,None,4,4.317974998615682,504.39770402526483,None,,,,,,,,,,,,,,,,,,,,,,,,,,,,,954830,2022_Jun_15_1008,palt,2021.1.2,59.82655060240474,
8,szalvéta,puska,,,,,,,,,0,0,0,0,,,,,0,4,4,7,,,,,,,,,508.741957525257,None,,,,,,,,,,,puska,509.7576947696507,None,None,,509.7576947696507,None,509.7576947696507,None,509.7576947696507,None, ,524.7679175557569,None,524.7679175557569,None,down,1.39170999545604,524.7679175557569,None,526.1970528396778,None,4,0.9563962547108531,526.1970528396778,None,,,,,,,,,,,,,,,,,,,,,,,,,,,,,954830,2022_Jun_15_1008,palt,2021.1.2,59.82655060240474,
9,szilva,kecske,,,,,,,,,0,0,0,0,,,,,0,5,5,8,,,,,,,,,527.1940939226188,None,,,,,,,,,,,szilva,528.2173354448751,None,None,,528.2173354448751,None,528.2173354448751,None,528.2173354448751,None, ,543.2146691856906,None,543.2146691856906,None,down,1.2807363141328096,543.2146691856906,None,544.5249610776082,None,4,1.7342545138671994,544.5249610776082,None,,,,,,,,,,,,,,,,,,,,,,,,,,,,,954830,2022_Jun_15_1008,palt,2021.1.2,59.82655060240474,
6,menta,triatlon,,,,,,,,,0,0,0,0,,,,,0,6,6,5,,,,,,,,,546.3014260274358,None,,,,,,,,,,,menta,547.3200606089085,None,4,4.741229458712041,547.3200606089085,None,547.3200606089085,None,547.3200606089085,None, tisztás,552.0961336907931,None,552.0961336907931,None,down,2.607007724698633,552.0961336907931,None,554.7311357399449,None,4,7.478977198712528,554.7311357399449,None,,,,,,,,,,,,,,,,,,,,,,,,,,,,,954830,2022_Jun_15_1008,palt,2021.1.2,59.82655060240474,
7,csavarhúzó,hering,,,,,,,,,0,0,0,0,,,,,0,7,7,6,,,,,,,,,562.2402451229282,None,,,,,,,,,,,hering,563.2567356252111,None,4,7.993285367731005,563.2567356252111,None,563.2567356252111,None,563.2567356252111,None,csavarhúzó,571.2801401149482,None,571.2801401149482,None,down,3.311260366346687,571.2801401149482,None,574.6391039155424,None,4,5.010055465158075,574.6391039155424,None,,,,,,,,,,,,,,,,,,,,,,,,,,,,,954830,2022_Jun_15_1008,palt,2021.1.2,59.82655060240474,
3,fogó,limonádé,,,,,,,,,0,0,0,0,,,,,0,8,8,2,,,,,,,,,579.6694845939055,None,,,,,,,,,,,fogó,580.6876361821778,None,None,,580.6876361821778,None,580.6876361821778,None,580.6876361821778,None, ,595.6853154511191,None,595.6853154511191,None,down,1.0338676841929555,595.6853154511191,None,596.7653567278758,None,4,1.7374037667177618,596.7653567278758,None,,,,,,,,,,,,,,,,,,,,,,,,,,,,,954830,2022_Jun_15_1008,palt,2021.1.2,59.82655060240474,
5,karton,hentes,,,,,,,,,0,0,0,0,,,,,0,9,9,4,,,,,,,,,598.537160621956,None,,,,,,,,,,,hentes,599.552534299437,None,4,5.842096358537674,599.552534299437,None,599.552534299437,None,599.552534299437,None,karton,605.4311810848303,None,605.4311810848303,None,down,3.3034248664043844,605.4311810848303,None,608.777511798311,None,4,2.276111646555364,608.777511798311,None,,,,,,,,,,,,,,,,,,,,,,,,,,,,,954830,2022_Jun_15_1008,palt,2021.1.2,59.82655060240474,
,,,,,,,,,,,0,0,0,0,,,,,,,,,,,,,,,,,,,,,,,,,,,,,,,,,,,,,,,,,,,,,,,,,,,,,,,,,,,,,,,,,,,,,,,,,,,4,32.38039650861174,611.131043868605,None,611.131043868605,None,,,954830,2022_Jun_15_1008,palt,2021.1.2,59.82655060240474,
10,málna,dominó,,,,,,,,,1,0,1,0,0,0,0,9,,,,,,,,,,,,,647.5707860318944,None,648.5630596955307,None,648.5630596955307,None,,,,,,,,,,,,,,,,,,,,,,,,,,,,,,,,,,,,,,,643.5452452381141,None,,,,,,,,,,,,,,,,,,,,,954830,2022_Jun_15_1008,palt,2021.1.2,59.82655060240474,
2,kötény,tisztás,,,,,,,,,1,0,1,0,0,1,1,1,,,,,,,,,,,,,654.5501383049414,None,655.5557407774031,None,655.5557407774031,None,,,,,,,,,,,,,,,,,,,,,,,,,,,,,,,,,,,,,,,,,,,,,,,,,,,,,,,,,,,,,954830,2022_Jun_15_1008,palt,2021.1.2,59.82655060240474,
7,csavarhúzó,hering,,,,,,,,,1,0,1,0,0,2,2,6,,,,,,,,,,,,,661.5495999525301,None,662.5603215931915,None,662.5603215931915,None,,,,,,,,,,,,,,,,,,,,,,,,,,,,,,,,,,,,,,,,,,,,,,,,,,,,,,,,,,,,,954830,2022_Jun_15_1008,palt,2021.1.2,59.82655060240474,
3,fogó,limonádé,,,,,,,,,1,0,1,0,0,3,3,2,,,,,,,,,,,,,668.5491461935453,None,669.5555743887089,None,669.5555743887089,None,,,,,,,,,,,,,,,,,,,,,,,,,,,,,,,,,,,,,,,,,,,,,,,,,,,,,,,,,,,,,954830,2022_Jun_15_1008,palt,2021.1.2,59.82655060240474,
5,karton,hentes,,,,,,,,,1,0,1,0,0,4,4,4,,,,,,,,,,,,,675.5518479077145,None,676.5700784921646,None,676.5700784921646,None,,,,,,,,,,,,,,,,,,,,,,,,,,,,,,,,,,,,,,,,,,,,,,,,,,,,,,,,,,,,,954830,2022_Jun_15_1008,palt,2021.1.2,59.82655060240474,
8,szalvéta,puska,,,,,,,,,1,0,1,0,0,5,5,7,,,,,,,,,,,,,682.5506981164217,None,683.5684646787122,None,683.5684646787122,None,,,,,,,,,,,,,,,,,,,,,,,,,,,,,,,,,,,,,,,,,,,,,,,,,,,,,,,,,,,,,954830,2022_Jun_15_1008,palt,2021.1.2,59.82655060240474,
4,mocsár,ananász,,,,,,,,,1,0,1,0,0,6,6,3,,,,,,,,,,,,,689.5502816787921,None,690.5562222157605,None,690.5562222157605,None,,,,,,,,,,,,,,,,,,,,,,,,,,,,,,,,,,,,,,,,,,,,,,,,,,,,,,,,,,,,,954830,2022_Jun_15_1008,palt,2021.1.2,59.82655060240474,
9,szilva,kecske,,,,,,,,,1,0,1,0,0,7,7,8,,,,,,,,,,,,,696.548726645764,None,697.5658879890107,None,697.5658879890107,None,,,,,,,,,,,,,,,,,,,,,,,,,,,,,,,,,,,,,,,,,,,,,,,,,,,,,,,,,,,,,954830,2022_Jun_15_1008,palt,2021.1.2,59.82655060240474,
1,bagoly,kirakó,,,,,,,,,1,0,1,0,0,8,8,0,,,,,,,,,,,,,703.5484346104786,None,704.5678006797098,None,704.5678006797098,None,,,,,,,,,,,,,,,,,,,,,,,,,,,,,,,,,,,,,,,,,,,,,,,,,,,,,,,,,,,,,954830,2022_Jun_15_1008,palt,2021.1.2,59.82655060240474,
6,menta,triatlon,,,,,,,,,1,0,1,0,0,9,9,5,,,,,,,,,,,,,710.5488382973708,None,711.5664008390158,None,711.5664008390158,None,,,,,,,,,,,,,,,,,,,,,,,,,,,,,,,,,,,,,,,,,,,,,,,,,,,,,,,,,,,,,954830,2022_Jun_15_1008,palt,2021.1.2,59.82655060240474,
7,csavarhúzó,hering,,,,,,,,,1,0,1,0,,,,,0,0,0,6,,,,,,,,,727.8862437433563,None,,,,,,,,,,,hering,728.8883330854587,None,4,13.530645655933768,728.8883330854587,None,728.8883330854587,None,728.8883330854587,None,csavarhúzó,742.4499229639769,None,742.4499229639769,None,down,10.170975870452821,742.4499229639769,None,752.6601099222898,None,4,2.533731463365257,752.6601099222898,None,,,,,,,723.8575048688799,None,717.5502717266791,None,u,2.4471164401620626,717.5502717266791,None,720.0203308113851,None,4,3.805046766065061,720.0203308113851,None,,,,,,,,,954830,2022_Jun_15_1008,palt,2021.1.2,59.82655060240474,
2,kötény,tisztás,,,,,,,,,1,0,1,0,,,,,0,1,1,1,,,,,,,,,755.2368501750752,None,,,,,,,,,,,tisztás,756.262265633326,None,None,,756.262265633326,None,756.262265633326,None,756.262265633326,None,kötény,771.2653467757627,None,771.2653467757627,None,down,4.4435000559315085,771.2653467757627,None,775.7309435382485,None,4,1.9930091938003898,775.7309435382485,None,,,,,,,,,,,,,,,,,,,,,,,,,,,,,954830,2022_Jun_15_1008,palt,2021.1.2,59.82655060240474,
4,mocsár,ananász,,,,,,,,,1,0,1,0,,,,,0,2,2,3,,,,,,,,,777.7516534668393,None,,,,,,,,,,,mocsár,778.7669381960295,None,4,2.177718493156135,778.7669381960295,None,778.7669381960295,None,778.7669381960295,None, ananász,780.9733915207908,None,780.9733915207908,None,down,1.983196625020355,780.9733915207908,None,782.9848256777041,None,4,1.4540668153204024,782.9848256777041,None,,,,,,,,,,,,,,,,,,,,,,,,,,,,,954830,2022_Jun_15_1008,palt,2021.1.2,59.82655060240474,
1,bagoly,kirakó,,,,,,,,,1,0,1,0,,,,,0,3,3,0,,,,,,,,,784.4678630675189,None,,,,,,,,,,,bagoly,785.4836040437222,None,4,8.569883179850876,785.4836040437222,None,785.4836040437222,None,785.4836040437222,None,kirakó,794.1000722781755,None,794.1000722781755,None,down,2.184827792458236,794.1000722781755,None,796.3227414856665,None,4,3.149751225952059,796.3227414856665,None,,,,,,,,,,,,,,,,,,,,,,,,,,,,,954830,2022_Jun_15_1008,palt,2021.1.2,59.82655060240474,
10,málna,dominó,,,,,,,,,1,0,1,0,,,,,0,4,4,9,,,,,,,,,799.5010437383316,None,,,,,,,,,,,dominó,800.5180312287994,None,4,9.160167458467185,800.5180312287994,None,800.5180312287994,None,800.5180312287994,None,mocsár,809.721082452219,None,809.721082452219,None,down,2.851199832279235,809.721082452219,None,812.6053382414393,None,4,3.1408912702463567,812.6053382414393,None,,,,,,,,,,,,,,,,,,,,,,,,,,,,,954830,2022_Jun_15_1008,palt,2021.1.2,59.82655060240474,
3,fogó,limonádé,,,,,,,,,1,0,1,0,,,,,0,5,5,2,,,,,,,,,815.7722607627511,None,,,,,,,,,,,fogó,816.7841502334923,None,None,,816.7841502334923,None,816.7841502334923,None,816.7841502334923,None, ,831.7806837544776,None,831.7806837544776,None,down,1.1432757577858865,831.7806837544776,None,832.9608116154559,None,4,1.5332207903265953,832.9608116154559,None,,,,,,,,,,,,,,,,,,,,,,,,,,,,,954830,2022_Jun_15_1008,palt,2021.1.2,59.82655060240474,
8,szalvéta,puska,,,,,,,,,1,0,1,0,,,,,0,6,6,7,,,,,,,,,834.5403213817626,None,,,,,,,,,,,puska,835.5639628586359,None,4,4.098011859226972,835.5639628586359,None,835.5639628586359,None,835.5639628586359,None,szalvéta,839.7047692239285,None,839.7047692239285,None,down,2.6110800448805094,839.7047692239285,None,842.3638680637814,None,4,1.627314588520676,842.3638680637814,None,,,,,,,,,,,,,,,,,,,,,,,,,,,,,954830,2022_Jun_15_1008,palt,2021.1.2,59.82655060240474,
9,szilva,kecske,,,,,,,,,1,0,1,0,,,,,0,7,7,8,,,,,,,,,844.018673457671,None,,,,,,,,,,,szilva,845.0404470283538,None,None,,845.0404470283538,None,845.0404470283538,None,845.0404470283538,None, ,860.0476287924685,None,860.0476287924685,None,down,1.5481292023323476,860.0476287924685,None,861.6350894425996,None,4,1.366599012631923,861.6350894425996,None,,,,,,,,,,,,,,,,,,,,,,,,,,,,,954830,2022_Jun_15_1008,palt,2021.1.2,59.82655060240474,
6,menta,triatlon,,,,,,,,,1,0,1,0,,,,,0,8,8,5,,,,,,,,,863.0463368711062,None,,,,,,,,,,,menta,864.0633616829291,None,4,4.355278994888067,864.0633616829291,None,864.0633616829291,None,864.0633616829291,None,triatlon,868.4656334612519,None,868.4656334612519,None,down,2.6180988415144384,868.4656334612519,None,871.1249105078168,None,4,2.934741177596152,871.1249105078168,None,,,,,,,,,,,,,,,,,,,,,,,,,,,,,954830,2022_Jun_15_1008,palt,2021.1.2,59.82655060240474,
5,karton,hentes,,,,,,,,,1,0,1,0,,,,,0,9,9,4,,,,,,,,,874.0881582377478,None,,,,,,,,,,,hentes,875.1105382717215,None,4,1.7700159172527492,875.1105382717215,None,875.1105382717215,None,875.1105382717215,None,karton,876.9044995191507,None,876.9044995191507,None,down,1.9870506185106933,876.9044995191507,None,878.9183707237244,None,4,1.5634696017950773,878.9183707237244,None,,,,,,,,,,,,,,,,,,,,,,,,,,,,,954830,2022_Jun_15_1008,palt,2021.1.2,59.82655060240474,
,,,,,,,,,,,1,0,1,0,,,,,,,,,,,,,,,,,,,,,,,,,,,,,,,,,,,,,,,,,,,,,,,,,,,,,,,,,,,,,,,,,,,,,,,,,,,4,23.273380075581372,880.5398887717165,None,880.5398887717165,None,,,954830,2022_Jun_15_1008,palt,2021.1.2,59.82655060240474,
7,csavarhúzó,hering,,,,,,,,,2,0,2,0,0,0,0,6,,,,,,,,,,,,,907.8694506320171,None,908.8671283456497,None,908.8671283456497,None,,,,,,,,,,,,,,,,,,,,,,,,,,,,,,,,,,,,,,,903.8433892130852,None,,,,,,,,,,,,,,,,,,,,,954830,2022_Jun_15_1008,palt,2021.1.2,59.82655060240474,
10,málna,dominó,,,,,,,,,2,0,2,0,0,1,1,9,,,,,,,,,,,,,914.8483712277375,None,915.8550818166696,None,915.8550818166696,None,,,,,,,,,,,,,,,,,,,,,,,,,,,,,,,,,,,,,,,,,,,,,,,,,,,,,,,,,,,,,954830,2022_Jun_15_1008,palt,2021.1.2,59.82655060240474,
5,karton,hentes,,,,,,,,,2,0,2,0,0,2,2,4,,,,,,,,,,,,,921.8464097091928,None,922.8529657279141,None,922.8529657279141,None,,,,,,,,,,,,,,,,,,,,,,,,,,,,,,,,,,,,,,,,,,,,,,,,,,,,,,,,,,,,,954830,2022_Jun_15_1008,palt,2021.1.2,59.82655060240474,
9,szilva,kecske,,,,,,,,,2,0,2,0,0,3,3,8,,,,,,,,,,,,,928.8470174157992,None,929.8617345583625,None,929.8617345583625,None,,,,,,,,,,,,,,,,,,,,,,,,,,,,,,,,,,,,,,,,,,,,,,,,,,,,,,,,,,,,,954830,2022_Jun_15_1008,palt,2021.1.2,59.82655060240474,
3,fogó,limonádé,,,,,,,,,2,0,2,0,0,4,4,2,,,,,,,,,,,,,935.8471455504186,None,936.8614111114293,None,936.8614111114293,None,,,,,,,,,,,,,,,,,,,,,,,,,,,,,,,,,,,,,,,,,,,,,,,,,,,,,,,,,,,,,954830,2022_Jun_15_1008,palt,2021.1.2,59.82655060240474,
4,mocsár,ananász,,,,,,,,,2,0,2,0,0,5,5,3,,,,,,,,,,,,,942.8491795337759,None,943.8614481212571,None,943.8614481212571,None,,,,,,,,,,,,,,,,,,,,,,,,,,,,,,,,,,,,,,,,,,,,,,,,,,,,,,,,,,,,,954830,2022_Jun_15_1008,palt,2021.1.2,59.82655060240474,
1,bagoly,kirakó,,,,,,,,,2,0,2,0,0,6,6,0,,,,,,,,,,,,,949.8470407412387,None,950.8633530368097,None,950.8633530368097,None,,,,,,,,,,,,,,,,,,,,,,,,,,,,,,,,,,,,,,,,,,,,,,,,,,,,,,,,,,,,,954830,2022_Jun_15_1008,palt,2021.1.2,59.82655060240474,
8,szalvéta,puska,,,,,,,,,2,0,2,0,0,7,7,7,,,,,,,,,,,,,956.8465932030231,None,957.8646244318224,None,957.8646244318224,None,,,,,,,,,,,,,,,,,,,,,,,,,,,,,,,,,,,,,,,,,,,,,,,,,,,,,,,,,,,,,954830,2022_Jun_15_1008,palt,2021.1.2,59.82655060240474,
2,kötény,tisztás,,,,,,,,,2,0,2,0,0,8,8,1,,,,,,,,,,,,,963.8466815287247,None,964.8615896292031,None,964.8615896292031,None,,,,,,,,,,,,,,,,,,,,,,,,,,,,,,,,,,,,,,,,,,,,,,,,,,,,,,,,,,,,,954830,2022_Jun_15_1008,palt,2021.1.2,59.82655060240474,
6,menta,triatlon,,,,,,,,,2,0,2,0,0,9,9,5,,,,,,,,,,,,,970.8461475302465,None,971.8570834551938,None,971.8570834551938,None,,,,,,,,,,,,,,,,,,,,,,,,,,,,,,,,,,,,,,,,,,,,,,,,,,,,,,,,,,,,,954830,2022_Jun_15_1008,palt,2021.1.2,59.82655060240474,
8,szalvéta,puska,,,,,,,,,2,0,2,0,,,,,0,0,0,7,,,,,,,,,987.637354192324,None,,,,,,,,,,,puska,988.6301438156515,None,4,3.3761232779361308,988.6301438156515,None,988.6301438156515,None,988.6301438156515,None,szalvéta,992.0437866174616,None,992.0437866174616,None,down,2.622522288467735,992.0437866174616,None,994.7107517467812,None,4,1.8233190248720348,994.7107517467812,None,,,,,,,983.6022900659591,None,977.8466510502622,None,u,1.9241405175998807,977.8466510502622,None,979.7999095595442,None,4,3.77847405243665,979.7999095595442,None,,,,,,,,,954830,2022_Jun_15_1008,palt,2021.1.2,59.82655060240474,
5,karton,hentes,,,,,,,,,2,0,2,0,,,,,0,1,1,4,,,,,,,,,996.5655216234736,None,,,,,,,,,,,hentes,997.5968608241528,None,4,1.3973379703238606,997.5968608241528,None,997.5968608241528,None,997.5968608241528,None,karton,999.0366449728608,None,999.0366449728608,None,down,1.725542597938329,999.0366449728608,None,1000.7985286903568,None,4,2.471524237189442,1000.7985286903568,None,,,,,,,,,,,,,,,,,,,,,,,,,,,,,954830,2022_Jun_15_1008,palt,2021.1.2,59.82655060240474,
3,fogó,limonádé,,,,,,,,,2,0,2,0,,,,,0,2,2,2,,,,,,,,,1003.3064571809955,None,,,,,,,,,,,fogó,1004.3310854816809,None,4,5.307896830141544,1004.3310854816809,None,1004.3310854816809,None,1004.3310854816809,None,limonádé,1009.6856752857566,None,1009.6856752857566,None,down,2.83670070534572,1009.6856752857566,None,1012.5535550229251,None,4,2.2513654744252563,1012.5535550229251,None,,,,,,,,,,,,,,,,,,,,,,,,,,,,,954830,2022_Jun_15_1008,palt,2021.1.2,59.82655060240474,
2,kötény,tisztás,,,,,,,,,2,0,2,0,,,,,0,3,3,1,,,,,,,,,1014.8462731773034,None,,,,,,,,,,,tisztás,1015.8642558888532,None,4,4.266683481633663,1015.8642558888532,None,1015.8642558888532,None,1015.8642558888532,None,kötény,1020.1662787380628,None,1020.1662787380628,None,down,1.9875594256445765,1020.1662787380628,None,1022.1937502603978,None,4,1.987043776549399,1022.1937502603978,None,,,,,,,,,,,,,,,,,,,,,,,,,,,,,954830,2022_Jun_15_1008,palt,2021.1.2,59.82655060240474,
4,mocsár,ananász,,,,,,,,,2,0,2,0,,,,,0,4,4,3,,,,,,,,,1024.227492920123,None,,,,,,,,,,,mocsár,1025.244819407817,None,4,1.282048450782895,1025.244819407817,None,1025.244819407817,None,1025.244819407817,None,ananász,1026.5609787502326,None,1026.5609787502326,None,down,1.9927750062197447,1026.5609787502326,None,1028.5939345629886,None,4,1.738877627067268,1028.5939345629886,None,,,,,,,,,,,,,,,,,,,,,,,,,,,,,954830,2022_Jun_15_1008,palt,2021.1.2,59.82655060240474,
6,menta,triatlon,,,,,,,,,2,0,2,0,,,,,0,5,5,5,,,,,,,,,1030.3731917301193,None,,,,,,,,,,,menta,1031.3840337307192,None,4,1.5437206835485995,1031.3840337307192,None,1031.3840337307192,None,1031.3840337307192,None,triatlon,1032.96237815544,None,1032.96237815544,None,down,2.279305994976312,1032.96237815544,None,1035.2772452654317,None,4,1.420536884572357,1035.2772452654317,None,,,,,,,,,,,,,,,,,,,,,,,,,,,,,954830,2022_Jun_15_1008,palt,2021.1.2,59.82655060240474,
1,bagoly,kirakó,,,,,,,,,2,0,2,0,,,,,0,6,6,0,,,,,,,,,1036.723121100571,None,,,,,,,,,,,bagoly,1037.7349318866618,None,4,2.563789316918701,1037.7349318866618,None,1037.7349318866618,None,1037.7349318866618,None,kirakó,1040.3359642419964,None,1040.3359642419964,None,down,1.8176291594281793,1040.3359642419964,None,1042.191333428491,None,4,0.9672475857660174,1042.191333428491,None,,,,,,,,,,,,,,,,,,,,,,,,,,,,,954830,2022_Jun_15_1008,palt,2021.1.2,59.82655060240474,
9,szilva,kecske,,,,,,,,,2,0,2,0,,,,,0,7,7,8,,,,,,,,,1043.1807417883538,None,,,,,,,,,,,szilva,1044.1963138878345,None,None,,1044.1963138878345,None,1044.1963138878345,None,1044.1963138878345,None, kolibri,1059.2136388206854,None,1059.2136388206854,None,down,3.403852003160864,1059.2136388206854,None,1062.6550271417946,None,4,2.1935306899249554,1062.6550271417946,None,,,,,,,,,,,,,,,,,,,,,,,,,,,,,954830,2022_Jun_15_1008,palt,2021.1.2,59.82655060240474,
7,csavarhúzó,hering,,,,,,,,,2,0,2,0,,,,,0,8,8,6,,,,,,,,,1064.8815565630794,None,,,,,,,,,,,hering,1065.9040031526238,None,4,1.5483587253838778,1065.9040031526238,None,1065.9040031526238,None,1065.9040031526238,None,csavarhúzó,1067.4961348101497,None,1067.4961348101497,None,down,6.177214662078768,1067.4961348101497,None,1073.7220988217741,None,4,1.6872480460442603,1073.7220988217741,None,,,,,,,,,,,,,,,,,,,,,,,,,,,,,954830,2022_Jun_15_1008,palt,2021.1.2,59.82655060240474,
10,málna,dominó,,,,,,,,,2,0,2,0,,,,,0,9,9,9,,,,,,,,,1075.4309901269153,None,,,,,,,,,,,dominó,1076.4521444840357,None,4,5.725171566940844,1076.4521444840357,None,1076.4521444840357,None,1076.4521444840357,None,menta,1082.2026745947078,None,1082.2026745947078,None,down,2.0628451011143625,1082.2026745947078,None,1084.2993988865055,None,4,3.2767131333239377,1084.2993988865055,None,,,,,,,,,,,,,,,,,,,,,,,,,,,,,954830,2022_Jun_15_1008,palt,2021.1.2,59.82655060240474,
,,,,,,,,,,,2,0,2,0,,,,,,,,,,,,,,,,,,,,,,,,,,,,,,,,,,,,,,,,,,,,,,,,,,,,,,,,,,,,,,,,,,,,,,,,,,,4,69.06090597482398,1087.644523827359,None,1087.644523827359,None,,,954830,2022_Jun_15_1008,palt,2021.1.2,59.82655060240474,
6,menta,triatlon,,,,,,,,,3,0,3,0,0,0,0,5,,,,,,,,,,,,,1160.759133797139,None,1161.7353918654844,None,1161.7353918654844,None,,,,,,,,,,,,,,,,,,,,,,,,,,,,,,,,,,,,,,,1156.7321262960322,None,,,,,,,,,,,,,,,,,,,,,954830,2022_Jun_15_1008,palt,2021.1.2,59.82655060240474,
9,szilva,kecske,,,,,,,,,3,0,3,0,0,1,1,8,,,,,,,,,,,,,1167.746640351601,None,1168.7478430140764,None,1168.7478430140764,None,,,,,,,,,,,,,,,,,,,,,,,,,,,,,,,,,,,,,,,,,,,,,,,,,,,,,,,,,,,,,954830,2022_Jun_15_1008,palt,2021.1.2,59.82655060240474,
10,málna,dominó,,,,,,,,,3,0,3,0,0,2,2,9,,,,,,,,,,,,,1174.747824975755,None,1175.7511502578855,None,1175.7511502578855,None,,,,,,,,,,,,,,,,,,,,,,,,,,,,,,,,,,,,,,,,,,,,,,,,,,,,,,,,,,,,,954830,2022_Jun_15_1008,palt,2021.1.2,59.82655060240474,
8,szalvéta,puska,,,,,,,,,3,0,3,0,0,3,3,7,,,,,,,,,,,,,1181.7444993820973,None,1182.7568174200132,None,1182.7568174200132,None,,,,,,,,,,,,,,,,,,,,,,,,,,,,,,,,,,,,,,,,,,,,,,,,,,,,,,,,,,,,,954830,2022_Jun_15_1008,palt,2021.1.2,59.82655060240474,
4,mocsár,ananász,,,,,,,,,3,0,3,0,0,4,4,3,,,,,,,,,,,,,1188.7417255141772,None,1189.7624230026267,None,1189.7624230026267,None,,,,,,,,,,,,,,,,,,,,,,,,,,,,,,,,,,,,,,,,,,,,,,,,,,,,,,,,,,,,,954830,2022_Jun_15_1008,palt,2021.1.2,59.82655060240474,
2,kötény,tisztás,,,,,,,,,3,0,3,0,0,5,5,1,,,,,,,,,,,,,1195.74167637527,None,1196.748306102585,None,1196.748306102585,None,,,,,,,,,,,,,,,,,,,,,,,,,,,,,,,,,,,,,,,,,,,,,,,,,,,,,,,,,,,,,954830,2022_Jun_15_1008,palt,2021.1.2,59.82655060240474,
5,karton,hentes,,,,,,,,,3,0,3,0,0,6,6,4,,,,,,,,,,,,,1202.742880593054,None,1203.7553793257102,None,1203.7553793257102,None,,,,,,,,,,,,,,,,,,,,,,,,,,,,,,,,,,,,,,,,,,,,,,,,,,,,,,,,,,,,,954830,2022_Jun_15_1008,palt,2021.1.2,59.82655060240474,
7,csavarhúzó,hering,,,,,,,,,3,0,3,0,0,7,7,6,,,,,,,,,,,,,1209.744003326632,None,1210.7585083628073,None,1210.7585083628073,None,,,,,,,,,,,,,,,,,,,,,,,,,,,,,,,,,,,,,,,,,,,,,,,,,,,,,,,,,,,,,954830,2022_Jun_15_1008,palt,2021.1.2,59.82655060240474,
1,bagoly,kirakó,,,,,,,,,3,0,3,0,0,8,8,0,,,,,,,,,,,,,1216.744065838866,None,1217.7565232077613,None,1217.7565232077613,None,,,,,,,,,,,,,,,,,,,,,,,,,,,,,,,,,,,,,,,,,,,,,,,,,,,,,,,,,,,,,954830,2022_Jun_15_1008,palt,2021.1.2,59.82655060240474,
3,fogó,limonádé,,,,,,,,,3,0,3,0,0,9,9,2,,,,,,,,,,,,,1223.7435747594573,None,1224.7505406849086,None,1224.7505406849086,None,,,,,,,,,,,,,,,,,,,,,,,,,,,,,,,,,,,,,,,,,,,,,,,,,,,,,,,,,,,,,954830,2022_Jun_15_1008,palt,2021.1.2,59.82655060240474,
10,málna,dominó,,,,,,,,,3,0,3,0,,,,,0,0,0,9,,,,,,,,,1239.2491240501404,None,,,,,,,,,,,dominó,1240.2297480287962,None,4,9.959895700681955,1240.2297480287962,None,1240.2297480287962,None,1240.2297480287962,None,mocsár,1250.2290750104003,None,1250.2290750104003,None,down,6.226217481773347,1250.2290750104003,None,1256.4867819091305,None,4,1.709440853446722,1256.4867819091305,None,,,,,,,1235.2172191282734,None,1230.7442126339301,None,u,2.399670519400388,1230.7442126339301,None,1233.1638799440116,None,4,2.025666751433164,1233.1638799440116,None,,,,,,,,,954830,2022_Jun_15_1008,palt,2021.1.2,59.82655060240474,
9,szilva,kecske,,,,,,,,,3,0,3,0,,,,,0,1,1,8,,,,,,,,,1258.2224847809412,None,,,,,,,,,,,szilva,1259.2326450552791,None,4,2.9557176386006176,1259.2326450552791,None,1259.2326450552791,None,1259.2326450552791,None,kecske,1262.2255149181,None,1262.2255149181,None,down,3.3976667039096355,1262.2255149181,None,1265.6593806119636,None,4,3.4007671289145947,1265.6593806119636,None,,,,,,,,,,,,,,,,,,,,,,,,,,,,,954830,2022_Jun_15_1008,palt,2021.1.2,59.82655060240474,
8,szalvéta,puska,,,,,,,,,3,0,3,0,,,,,0,2,2,7,,,,,,,,,1269.0841981908306,None,,,,,,,,,,,puska,1270.106339682825,None,None,,1270.106339682825,None,1270.106339682825,None,1270.106339682825,None, ,1285.0939143477008,None,1285.0939143477008,None,down,1.824961450882256,1285.0939143477008,None,1286.9509446201846,None,4,1.7612312254495919,1286.9509446201846,None,,,,,,,,,,,,,,,,,,,,,,,,,,,,,954830,2022_Jun_15_1008,palt,2021.1.2,59.82655060240474,
2,kötény,tisztás,,,,,,,,,3,0,3,0,,,,,0,3,3,1,,,,,,,,,1288.7471289429814,None,,,,,,,,,,,tisztás,1289.76355226757,None,4,2.065400952938944,1289.76355226757,None,1289.76355226757,None,1289.76355226757,None,kötény,1291.8864838406444,None,1291.8864838406444,None,down,2.2642551423050463,1291.8864838406444,None,1294.1945520355366,None,4,1.9281811150722206,1294.1945520355366,None,,,,,,,,,,,,,,,,,,,,,,,,,,,,,954830,2022_Jun_15_1008,palt,2021.1.2,59.82655060240474,
5,karton,hentes,,,,,,,,,3,0,3,0,,,,,0,4,4,4,,,,,,,,,1296.1641906397417,None,,,,,,,,,,,hentes,1297.1865221564658,None,4,1.629573740530759,1297.1865221564658,None,1297.1865221564658,None,1297.1865221564658,None,karton,1298.853771856986,None,1298.853771856986,None,down,2.1129028545692563,1298.853771856986,None,1301.0069127436727,None,4,1.7958493679761887,1301.0069127436727,None,,,,,,,,,,,,,,,,,,,,,,,,,,,,,954830,2022_Jun_15_1008,palt,2021.1.2,59.82655060240474,
1,bagoly,kirakó,,,,,,,,,3,0,3,0,,,,,0,5,5,0,,,,,,,,,1302.8300622696988,None,,,,,,,,,,,bagoly,1303.8482287866063,None,4,1.3464352111332119,1303.8482287866063,None,1303.8482287866063,None,1303.8482287866063,None,kirakó,1305.2278869654983,None,1305.2278869654983,None,down,1.8668160950765014,1305.2278869654983,None,1307.126049414277,None,4,0.7006064006127417,1307.126049414277,None,,,,,,,,,,,,,,,,,,,,,,,,,,,,,954830,2022_Jun_15_1008,palt,2021.1.2,59.82655060240474,
6,menta,triatlon,,,,,,,,,3,0,3,0,,,,,0,6,6,5,,,,,,,,,1307.8461711667478,None,,,,,,,,,,,menta,1308.8567090029828,None,4,2.2899212716147304,1308.8567090029828,None,1308.8567090029828,None,1308.8567090029828,None,triatlon,1311.1758138886653,None,1311.1758138886653,None,down,2.446823161095381,1311.1758138886653,None,1313.6563706900924,None,4,1.3362071379087865,1313.6563706900924,None,,,,,,,,,,,,,,,,,,,,,,,,,,,,,954830,2022_Jun_15_1008,palt,2021.1.2,59.82655060240474,
4,mocsár,ananász,,,,,,,,,3,0,3,0,,,,,0,7,7,3,,,,,,,,,1315.011418917682,None,,,,,,,,,,,mocsár,1316.031546019949,None,4,1.9380854307673872,1316.031546019949,None,1316.031546019949,None,1316.031546019949,None,ananász,1318.0045064855367,None,1318.0045064855367,None,down,2.242073841392994,1318.0045064855367,None,1320.2784777847119,None,4,1.1293407967314124,1320.2784777847119,None,,,,,,,,,,,,,,,,,,,,,,,,,,,,,954830,2022_Jun_15_1008,palt,2021.1.2,59.82655060240474,
7,csavarhúzó,hering,,,,,,,,,3,0,3,0,,,,,0,8,8,6,,,,,,,,,1321.4441569014452,None,,,,,,,,,,,hering,1322.4614432696253,None,4,1.566470815334469,1322.4614432696253,None,1322.4614432696253,None,1322.4614432696253,None,csavarhúzó,1324.0622846670449,None,1324.0622846670449,None,down,3.464295511133969,1324.0622846670449,None,1327.5500574428588,None,4,0.7073707939125597,1327.5500574428588,None,,,,,,,,,,,,,,,,,,,,,,,,,,,,,954830,2022_Jun_15_1008,palt,2021.1.2,59.82655060240474,
3,fogó,limonádé,,,,,,,,,3,0,3,0,,,,,0,9,9,2,,,,,,,,,1328.2938477299176,None,,,,,,,,,,,fogó,1329.3114936216734,None,4,1.1040139752440155,1329.3114936216734,None,1329.3114936216734,None,1329.3114936216734,None,limondáé,1330.4462459329516,None,1330.4462459329516,None,down,2.296285710763186,1330.4462459329516,None,1332.777319596149,None,4,9.664010877721012,1332.777319596149,None,,,,,,,,,,,,,,,,,,,,,,,,,,,,,954830,2022_Jun_15_1008,palt,2021.1.2,59.82655060240474,
,,,,,,,,,,,3,0,3,0,,,,,,,,,,,,,,,,,,,,,,,,,,,,,,,,,,,,,,,,,,,,,,,,,,,,,,,,,,,,,,,,,,,,,,,,,,,4,20.87387532228604,1342.4751269374974,None,1342.4751269374974,None,,,954830,2022_Jun_15_1008,palt,2021.1.2,59.82655060240474,
,,,,,,,,,,,,,,,,,,,,,,,,,,,,,,,,,,,,,,,,,,,,,,,,,,,,,,,,,,,,,,,,,,,,,,,,,,,,,,,,,,,,,,,,,,,,,,,1363.3762598098256,None,,,,,,
