itemno,wordA,wordB,enc_gyak.thisRepN,enc_gyak.thisTrialN,enc_gyak.thisN,enc_gyak.thisIndex,rec_gyak.thisRepN,rec_gyak.thisTrialN,rec_gyak.thisN,rec_gyak.thisIndex,repeat_task.thisRepN,repeat_task.thisTrialN,repeat_task.thisN,repeat_task.thisIndex,enc_loop.thisRepN,enc_loop.thisTrialN,enc_loop.thisN,enc_loop.thisIndex,test_loop.thisRepN,test_loop.thisTrialN,test_loop.thisN,test_loop.thisIndex,int.started,int.stopped,int_key.keys,int_key.rt,int_key.started,int_key.stopped,prepare_gyak_text.started,prepare_gyak_text.stopped,fix.started,fix.stopped,word1.started,word1.stopped,word2.started,word2.stopped,gykrec_inst.started,gykrec_inst.stopped,gyakrec_inst.keys,gyakrec_inst.rt,gyakrec_inst.started,gyakrec_inst.stopped,cueword,cueword1.started,cueword1.stopped,cue_resp.keys,cue_resp.rt,cue_resp.started,cue_resp.stopped,cue_cont_text.started,cue_cont_text.stopped,cue_space.started,cue_space.stopped,test_ansbox.text,test_ansbox.started,test_ansbox.stopped,ans_text.started,ans_text.stopped,ans_continue.keys,ans_continue.rt,ans_continue.started,ans_continue.stopped,feedback_text.started,feedback_text.stopped,feedback_cont.keys,feedback_cont.rt,feedback_cont.started,feedback_cont.stopped,main_prep.started,main_prep.stopped,main_prep_resp.keys,main_prep_resp.rt,main_prep_resp.started,main_prep_resp.stopped,preparation.started,preparation.stopped,break_text.started,break_text.stopped,key_resp.keys,key_resp.rt,key_resp.started,key_resp.stopped,test_instruction.started,test_instruction.stopped,test_i_key.keys,test_i_key.rt,test_i_key.started,test_i_key.stopped,rep_routine.keys,rep_routine.rt,rep_routine.started,rep_routine.stopped,encrep_textbox.started,encrep_textbox.stopped,Résztvevő kódja,date,expName,psychopyVersion,frameRate,
,,,,,,,,,,,,,,,,,,,,,,,34.25241326459218,None,4,140.9732268982334,34.25241326459218,None,,,,,,,,,,,,,,,,,,,,,,,,,,,,,,,,,,,,,,,,,,,,,,,,,,,,,,,,,,,,,,,,,,,198059,2022_Apr_07_1503,palt,2021.1.2,None,
2,lepke,szintetizátor,0,0,0,1,,,,,,,,,,,,,,,,,,,,,,,175.2518229719717,None,178.30663124495186,None,179.2789201438427,None,179.2789201438427,None,,,,,,,,,,,,,,,,,,,,,,,,,,,,,,,,,,,,,,,,,,,,,,,,,,,,,,,,,,,198059,2022_Apr_07_1503,palt,2021.1.2,None,
1,sapka,beton,0,1,1,0,,,,,,,,,,,,,,,,,,,,,,,,,185.26643287180923,None,186.2792330175871,None,186.2792330175871,None,,,,,,,,,,,,,,,,,,,,,,,,,,,,,,,,,,,,,,,,,,,,,,,,,,,,,,,,,,,198059,2022_Apr_07_1503,palt,2021.1.2,None,
4,kard,harcsa,0,2,2,3,,,,,,,,,,,,,,,,,,,,,,,,,192.27548755134922,None,193.2723246025853,None,193.2723246025853,None,,,,,,,,,,,,,,,,,,,,,,,,,,,,,,,,,,,,,,,,,,,,,,,,,,,,,,,,,,,198059,2022_Apr_07_1503,palt,2021.1.2,None,
3,majoránna,szikla,0,3,3,2,,,,,,,,,,,,,,,,,,,,,,,,,199.27263872034382,None,200.2871326142922,None,200.2871326142922,None,,,,,,,,,,,,,,,,,,,,,,,,,,,,,,,,,,,,,,,,,,,,,,,,,,,,,,,,,,,198059,2022_Apr_07_1503,palt,2021.1.2,None,
,,,,,,,,,,,,,,,,,,,,,,,,,,,,,,,,,,,,,206.25570745870937,None,4,21.237255680025555,206.25570745870937,None,,,,,,,,,,,,,,,,,,,,,,,,,,,,,,,,,,,,,,,,,,,,,,,,,,,,,198059,2022_Apr_07_1503,palt,2021.1.2,None,
3,majoránna,szikla,,,,,0,0,0,2,,,,,,,,,,,,,,,,,,,,,227.54153290740214,None,,,,,,,,,,,majoránna,228.57214664388448,None,4,8.737984993262216,228.57214664388448,None,228.57214664388448,None,228.57214664388448,None, szikla,237.38222478772514,None,237.38222478772514,None,down,3.3034521237714216,237.38222478772514,None,240.80241273588035,None,4,3.7592868467327207,240.80241273588035,None,,,,,,,,,,,,,,,,,,,,,,,,,,,198059,2022_Apr_07_1503,palt,2021.1.2,None,
4,kard,harcsa,,,,,0,1,1,3,,,,,,,,,,,,,,,,,,,,,244.61182718921918,None,,,,,,,,,,,harcsa,245.63604847248644,None,4,9.542723445105366,245.63604847248644,None,245.63604847248644,None,245.63604847248644,None,,255.2242851021001,None,255.2242851021001,None,down,3.125467055826448,255.2242851021001,None,258.4115319806151,None,4,1.4662385541014373,258.4115319806151,None,,,,,,,,,,,,,,,,,,,,,,,,,,,198059,2022_Apr_07_1503,palt,2021.1.2,None,
2,lepke,szintetizátor,,,,,0,2,2,1,,,,,,,,,,,,,,,,,,,,,259.92771993379574,None,,,,,,,,,,,lepke,260.9492251863703,None,4,11.590861223987304,260.9492251863703,None,260.9492251863703,None,260.9492251863703,None, ,272.5929602152901,None,272.5929602152901,None,down,1.8686160217039287,272.5929602152901,None,274.49667283915915,None,4,5.956415063468739,274.49667283915915,None,,,,,,,,,,,,,,,,,,,,,,,,,,,198059,2022_Apr_07_1503,palt,2021.1.2,None,
1,sapka,beton,,,,,0,3,3,0,,,,,,,,,,,,,,,,,,,,,280.5025549286511,None,,,,,,,,,,,beton,281.53514325327706,None,None,,281.53514325327706,None,281.53514325327706,None,281.53514325327706,None, sapka,296.5243926484836,None,296.5243926484836,None,down,3.553595031844452,296.5243926484836,None,300.1216820916161,None,4,31.592549995984882,300.1216820916161,None,,,,,,,,,,,,,,,,,,,,,,,,,,,198059,2022_Apr_07_1503,palt,2021.1.2,None,
,,,,,,,,,,,,,,,,,,,,,,,,,,,,,,,,,,,,,,,,,,,,,,,,,,,,,,,,,,,,,,,,,,,,,331.7477260668529,None,4,9.197657551849261,331.7477260668529,None,,,,,,,,,,,,,,,,,,,,,198059,2022_Apr_07_1503,palt,2021.1.2,None,
9,szilva,kecske,,,,,,,,,0,0,0,0,0,0,0,8,,,,,,,,,,,,,345.02800749160815,None,346.0049717698712,None,346.0049717698712,None,,,,,,,,,,,,,,,,,,,,,,,,,,,,,,,,,,,,,,,340.98899032582995,None,,,,,,,,,,,,,,,,,,,198059,2022_Apr_07_1503,palt,2021.1.2,None,
7,csavarhúzó,hering,,,,,,,,,0,0,0,0,0,1,1,6,,,,,,,,,,,,,352.0002341888612,None,353.03016930643935,None,353.03016930643935,None,,,,,,,,,,,,,,,,,,,,,,,,,,,,,,,,,,,,,,,,,,,,,,,,,,,,,,,,,,,198059,2022_Apr_07_1503,palt,2021.1.2,None,
6,menta,triatlon,,,,,,,,,0,0,0,0,0,2,2,5,,,,,,,,,,,,,359.00064005400054,None,360.01793581666425,None,360.01793581666425,None,,,,,,,,,,,,,,,,,,,,,,,,,,,,,,,,,,,,,,,,,,,,,,,,,,,,,,,,,,,198059,2022_Apr_07_1503,palt,2021.1.2,None,
3,fogó,limonádé,,,,,,,,,0,0,0,0,0,3,3,2,,,,,,,,,,,,,366.009646216291,None,367.0117691551568,None,367.0117691551568,None,,,,,,,,,,,,,,,,,,,,,,,,,,,,,,,,,,,,,,,,,,,,,,,,,,,,,,,,,,,198059,2022_Apr_07_1503,palt,2021.1.2,None,
10,málna,dominó,,,,,,,,,0,0,0,0,0,4,4,9,,,,,,,,,,,,,372.9903967027785,None,374.01641063473653,None,374.01641063473653,None,,,,,,,,,,,,,,,,,,,,,,,,,,,,,,,,,,,,,,,,,,,,,,,,,,,,,,,,,,,198059,2022_Apr_07_1503,palt,2021.1.2,None,
4,mocsár,ananász,,,,,,,,,0,0,0,0,0,5,5,3,,,,,,,,,,,,,380.01800019526854,None,381.0237790303072,None,381.0237790303072,None,,,,,,,,,,,,,,,,,,,,,,,,,,,,,,,,,,,,,,,,,,,,,,,,,,,,,,,,,,,198059,2022_Apr_07_1503,palt,2021.1.2,None,
1,bagoly,kirakó,,,,,,,,,0,0,0,0,0,6,6,0,,,,,,,,,,,,,387.0134420657996,None,388.0174711711006,None,388.0174711711006,None,,,,,,,,,,,,,,,,,,,,,,,,,,,,,,,,,,,,,,,,,,,,,,,,,,,,,,,,,,,198059,2022_Apr_07_1503,palt,2021.1.2,None,
2,kötény,tisztás,,,,,,,,,0,0,0,0,0,7,7,1,,,,,,,,,,,,,393.99192375084385,None,395.0091818816727,None,395.0091818816727,None,,,,,,,,,,,,,,,,,,,,,,,,,,,,,,,,,,,,,,,,,,,,,,,,,,,,,,,,,,,198059,2022_Apr_07_1503,palt,2021.1.2,None,
8,szalvéta,puska,,,,,,,,,0,0,0,0,0,8,8,7,,,,,,,,,,,,,401.0014356117463,None,402.0076986857457,None,402.0076986857457,None,,,,,,,,,,,,,,,,,,,,,,,,,,,,,,,,,,,,,,,,,,,,,,,,,,,,,,,,,,,198059,2022_Apr_07_1503,palt,2021.1.2,None,
5,karton,hentes,,,,,,,,,0,0,0,0,0,9,9,4,,,,,,,,,,,,,407.9917477205163,None,409.0089203241514,None,409.0089203241514,None,,,,,,,,,,,,,,,,,,,,,,,,,,,,,,,,,,,,,,,,,,,,,,,,,,,,,,,,,,,198059,2022_Apr_07_1503,palt,2021.1.2,None,
9,szilva,kecske,,,,,,,,,0,0,0,0,,,,,0,0,0,8,,,,,,,,,429.01864398131147,None,,,,,,,,,,,szilva,430.0039681477938,None,4,1.9586443669395521,430.0039681477938,None,430.0039681477938,None,430.0039681477938,None, kecske,432.02455872669816,None,432.02455872669816,None,down,3.939937251037918,432.02455872669816,None,436.0098101173062,None,4,1.994669016217813,436.0098101173062,None,,,,,,,424.98422039998695,None,415.0139138645027,None,u,5.238624736201018,415.0139138645027,None,420.3278366861632,None,4,4.61197616183199,420.3278366861632,None,,,,,,,198059,2022_Apr_07_1503,palt,2021.1.2,None,
7,csavarhúzó,hering,,,,,,,,,0,0,0,0,,,,,0,1,1,6,,,,,,,,,438.03789815993514,None,,,,,,,,,,,csavarhúzó,439.0620077913627,None,4,3.710340136778541,439.0620077913627,None,439.0620077913627,None,439.0620077913627,None, harcsa,442.8135626745643,None,442.8135626745643,None,down,3.822615488083102,442.8135626745643,None,446.6868410134921,None,4,2.6514386907219887,446.6868410134921,None,,,,,,,,,,,,,,,,,,,,,,,,,,,198059,2022_Apr_07_1503,palt,2021.1.2,None,
8,szalvéta,puska,,,,,,,,,0,0,0,0,,,,,0,2,2,7,,,,,,,,,449.37985273159575,None,,,,,,,,,,,szalvéta,450.40201110055204,None,4,6.253279110067524,450.40201110055204,None,450.40201110055204,None,450.40201110055204,None,,456.6986219868995,None,456.6986219868995,None,down,2.529454299598001,456.6986219868995,None,459.26476213813294,None,4,1.235506261466071,459.26476213813294,None,,,,,,,,,,,,,,,,,,,,,,,,,,,198059,2022_Apr_07_1503,palt,2021.1.2,None,
2,kötény,tisztás,,,,,,,,,0,0,0,0,,,,,0,3,3,1,,,,,,,,,460.5380620609503,None,,,,,,,,,,,kötény,461.5586983578978,None,4,2.81149291805923,461.5586983578978,None,461.5586983578978,None,461.5586983578978,None, triatlon,464.41299465007614,None,464.41299465007614,None,down,6.607390041695908,464.41299465007614,None,471.06144362327177,None,4,1.5959741913247854,471.06144362327177,None,,,,,,,,,,,,,,,,,,,,,,,,,,,198059,2022_Apr_07_1503,palt,2021.1.2,None,
10,málna,dominó,,,,,,,,,0,0,0,0,,,,,0,4,4,9,,,,,,,,,472.70349547825754,None,,,,,,,,,,,dominó,473.7279083422618,None,4,11.40314347972162,473.7279083422618,None,473.7279083422618,None,473.7279083422618,None, ,485.17429620504845,None,485.17429620504845,None,down,2.309840844827704,485.17429620504845,None,487.5167950403411,None,4,0.7143384523224086,487.5167950403411,None,,,,,,,,,,,,,,,,,,,,,,,,,,,198059,2022_Apr_07_1503,palt,2021.1.2,None,
5,karton,hentes,,,,,,,,,0,0,0,0,,,,,0,5,5,4,,,,,,,,,488.2802615201799,None,,,,,,,,,,,hentes,489.29501728271134,None,4,10.256257631350309,489.29501728271134,None,489.29501728271134,None,489.29501728271134,None, köntös,499.5990345075261,None,499.5990345075261,None,down,5.13277822593227,499.5990345075261,None,504.7757214291487,None,4,0.7145185258705169,504.7757214291487,None,,,,,,,,,,,,,,,,,,,,,,,,,,,198059,2022_Apr_07_1503,palt,2021.1.2,None,
3,fogó,limonádé,,,,,,,,,0,0,0,0,,,,,0,6,6,2,,,,,,,,,505.5226901920978,None,,,,,,,,,,,fogó,506.5461538605159,None,4,12.12252834357787,506.5461538605159,None,506.5461538605159,None,506.5461538605159,None, ,518.7233188010287,None,518.7233188010287,None,down,2.2167941695079207,518.7233188010287,None,520.9812819988001,None,4,0.914514233940281,520.9812819988001,None,,,,,,,,,,,,,,,,,,,,,,,,,,,198059,2022_Apr_07_1503,palt,2021.1.2,None,
1,bagoly,kirakó,,,,,,,,,0,0,0,0,,,,,0,7,7,0,,,,,,,,,521.9303722078912,None,,,,,,,,,,,kirakó,522.9590962613001,None,4,5.250606309622526,522.9590962613001,None,522.9590962613001,None,522.9590962613001,None, bohóc,528.2577131476719,None,528.2577131476719,None,down,4.2984433439560235,528.2577131476719,None,532.5883541905787,None,4,0.732336159562692,532.5883541905787,None,,,,,,,,,,,,,,,,,,,,,,,,,,,198059,2022_Apr_07_1503,palt,2021.1.2,None,
6,menta,triatlon,,,,,,,,,0,0,0,0,,,,,0,8,8,5,,,,,,,,,533.354452418047,None,,,,,,,,,,,menta,534.3874313683482,None,None,,534.3874313683482,None,534.3874313683482,None,534.3874313683482,None, ,549.3804436463397,None,549.3804436463397,None,down,2.391177767654881,549.3804436463397,None,551.8046862025512,None,4,0.7079183195019141,551.8046862025512,None,,,,,,,,,,,,,,,,,,,,,,,,,,,198059,2022_Apr_07_1503,palt,2021.1.2,None,
4,mocsár,ananász,,,,,,,,,0,0,0,0,,,,,0,9,9,3,,,,,,,,,552.562460929621,None,,,,,,,,,,,ananász,553.5785151495365,None,4,2.311631938442588,553.5785151495365,None,553.5785151495365,None,553.5785151495365,None, mocsár,555.954580739839,None,555.954580739839,None,down,4.4565463088219985,555.954580739839,None,560.4607166115893,None,4,2.680916937883012,560.4607166115893,None,,,,,,,,,,,,,,,,,,,,,,,,,,,198059,2022_Apr_07_1503,palt,2021.1.2,None,
,,,,,,,,,,,0,0,0,0,,,,,,,,,,,,,,,,,,,,,,,,,,,,,,,,,,,,,,,,,,,,,,,,,,,,,,,,,,,,,,,,,,,,,,,,,,,4,60.00200537790079,563.2138377298834,None,563.2138377298834,None,198059,2022_Apr_07_1503,palt,2021.1.2,None,
8,szalvéta,puska,,,,,,,,,1,0,1,0,0,0,0,7,,,,,,,,,,,,,627.2631315245526,None,628.2748176406603,None,628.2748176406603,None,,,,,,,,,,,,,,,,,,,,,,,,,,,,,,,,,,,,,,,623.2460428929189,None,,,,,,,,,,,,,,,,,,,198059,2022_Apr_07_1503,palt,2021.1.2,None,
3,fogó,limonádé,,,,,,,,,1,0,1,0,0,1,1,2,,,,,,,,,,,,,634.2693062723847,None,635.2694527569693,None,635.2694527569693,None,,,,,,,,,,,,,,,,,,,,,,,,,,,,,,,,,,,,,,,,,,,,,,,,,,,,,,,,,,,198059,2022_Apr_07_1503,palt,2021.1.2,None,
9,szilva,kecske,,,,,,,,,1,0,1,0,0,2,2,8,,,,,,,,,,,,,641.2557970288908,None,642.275091327494,None,642.275091327494,None,,,,,,,,,,,,,,,,,,,,,,,,,,,,,,,,,,,,,,,,,,,,,,,,,,,,,,,,,,,198059,2022_Apr_07_1503,palt,2021.1.2,None,
10,málna,dominó,,,,,,,,,1,0,1,0,0,3,3,9,,,,,,,,,,,,,648.2607109512901,None,649.2650949164527,None,649.2650949164527,None,,,,,,,,,,,,,,,,,,,,,,,,,,,,,,,,,,,,,,,,,,,,,,,,,,,,,,,,,,,198059,2022_Apr_07_1503,palt,2021.1.2,None,
6,menta,triatlon,,,,,,,,,1,0,1,0,0,4,4,5,,,,,,,,,,,,,655.2591319649946,None,656.2795810352545,None,656.2795810352545,None,,,,,,,,,,,,,,,,,,,,,,,,,,,,,,,,,,,,,,,,,,,,,,,,,,,,,,,,,,,198059,2022_Apr_07_1503,palt,2021.1.2,None,
1,bagoly,kirakó,,,,,,,,,1,0,1,0,0,5,5,0,,,,,,,,,,,,,662.2534364800667,None,663.3916430352256,None,663.3916430352256,None,,,,,,,,,,,,,,,,,,,,,,,,,,,,,,,,,,,,,,,,,,,,,,,,,,,,,,,,,,,198059,2022_Apr_07_1503,palt,2021.1.2,None,
2,kötény,tisztás,,,,,,,,,1,0,1,0,0,6,6,1,,,,,,,,,,,,,669.2628820963437,None,670.2623913261341,None,670.2623913261341,None,,,,,,,,,,,,,,,,,,,,,,,,,,,,,,,,,,,,,,,,,,,,,,,,,,,,,,,,,,,198059,2022_Apr_07_1503,palt,2021.1.2,None,
5,karton,hentes,,,,,,,,,1,0,1,0,0,7,7,4,,,,,,,,,,,,,676.2548599625006,None,677.2703058512416,None,677.2703058512416,None,,,,,,,,,,,,,,,,,,,,,,,,,,,,,,,,,,,,,,,,,,,,,,,,,,,,,,,,,,,198059,2022_Apr_07_1503,palt,2021.1.2,None,
7,csavarhúzó,hering,,,,,,,,,1,0,1,0,0,8,8,6,,,,,,,,,,,,,683.2706619551172,None,684.2736426533666,None,684.2736426533666,None,,,,,,,,,,,,,,,,,,,,,,,,,,,,,,,,,,,,,,,,,,,,,,,,,,,,,,,,,,,198059,2022_Apr_07_1503,palt,2021.1.2,None,
4,mocsár,ananász,,,,,,,,,1,0,1,0,0,9,9,3,,,,,,,,,,,,,690.2466409608023,None,691.2798096259357,None,691.2798096259357,None,,,,,,,,,,,,,,,,,,,,,,,,,,,,,,,,,,,,,,,,,,,,,,,,,,,,,,,,,,,198059,2022_Apr_07_1503,palt,2021.1.2,None,
7,csavarhúzó,hering,,,,,,,,,1,0,1,0,,,,,0,0,0,6,,,,,,,,,709.4156500342069,None,,,,,,,,,,,csavarhúzó,710.397352515487,None,4,1.781907684286125,710.397352515487,None,710.397352515487,None,710.397352515487,None, hering,712.2247192688519,None,712.2247192688519,None,down,3.6738125879783183,712.2247192688519,None,715.949502294301,None,4,1.9048182563856244,715.949502294301,None,,,,,,,705.3773687127978,None,697.2570382608101,None,u,6.145471074152738,697.2570382608101,None,703.442750627175,None,4,1.8845032303361222,703.442750627175,None,,,,,,,198059,2022_Apr_07_1503,palt,2021.1.2,None,
1,bagoly,kirakó,,,,,,,,,1,0,1,0,,,,,0,1,1,0,,,,,,,,,717.886949928361,None,,,,,,,,,,,kirakó,718.9131747235078,None,4,9.227694057975896,718.9131747235078,None,718.9131747235078,None,718.9131747235078,None, bagoly,728.1969661816256,None,728.1969661816256,None,down,3.3493080388288945,728.1969661816256,None,731.5811559163267,None,4,1.8789644935168326,731.5811559163267,None,,,,,,,,,,,,,,,,,,,,,,,,,,,198059,2022_Apr_07_1503,palt,2021.1.2,None,
8,szalvéta,puska,,,,,,,,,1,0,1,0,,,,,0,2,2,7,,,,,,,,,733.4946360493777,None,,,,,,,,,,,szalvéta,734.5157506762771,None,4,11.469190017669462,734.5157506762771,None,734.5157506762771,None,734.5157506762771,None, paprika,746.0441245349357,None,746.0441245349357,None,down,4.781848592683673,746.0441245349357,None,750.8675887631252,None,4,1.5832521084230393,750.8675887631252,None,,,,,,,,,,,,,,,,,,,,,,,,,,,198059,2022_Apr_07_1503,palt,2021.1.2,None,
3,fogó,limonádé,,,,,,,,,1,0,1,0,,,,,0,3,3,2,,,,,,,,,752.5055325167486,None,,,,,,,,,,,fogó,753.5313573559979,None,4,6.127575999475084,753.5313573559979,None,753.5313573559979,None,753.5313573559979,None, limonádé,759.696781132021,None,759.696781132021,None,down,4.569133289856836,759.696781132021,None,764.3260060945759,None,4,1.7862400221638381,764.3260060945759,None,,,,,,,,,,,,,,,,,,,,,,,,,,,198059,2022_Apr_07_1503,palt,2021.1.2,None,
9,szilva,kecske,,,,,,,,,1,0,1,0,,,,,0,4,4,8,,,,,,,,,766.1441010850249,None,,,,,,,,,,,szilva,767.1604436089983,None,4,2.1044712339062244,767.1604436089983,None,767.1604436089983,None,767.1604436089983,None, kecske,769.301120809745,None,769.301120809745,None,down,3.780709060258232,769.301120809745,None,773.1233434949536,None,4,1.4224545726319775,773.1233434949536,None,,,,,,,,,,,,,,,,,,,,,,,,,,,198059,2022_Apr_07_1503,palt,2021.1.2,None,
6,menta,triatlon,,,,,,,,,1,0,1,0,,,,,0,5,5,5,,,,,,,,,774.5943840087857,None,,,,,,,,,,,menta,775.6221467371797,None,4,1.6075825553853065,775.6221467371797,None,775.6221467371797,None,775.6221467371797,None, triatlon,777.2620517056203,None,777.2620517056203,None,down,4.379762228345498,777.2620517056203,None,781.6772507786518,None,4,1.8508730297908187,781.6772507786518,None,,,,,,,,,,,,,,,,,,,,,,,,,,,198059,2022_Apr_07_1503,palt,2021.1.2,None,
4,mocsár,ananász,,,,,,,,,1,0,1,0,,,,,0,6,6,3,,,,,,,,,783.5606371802278,None,,,,,,,,,,,ananász,784.5882577782031,None,4,1.1344041745178401,784.5882577782031,None,784.5882577782031,None,784.5882577782031,None, mocsár,785.777998627862,None,785.777998627862,None,down,3.447607013047673,785.777998627862,None,789.2604036756093,None,4,1.3603516129078344,789.2604036756093,None,,,,,,,,,,,,,,,,,,,,,,,,,,,198059,2022_Apr_07_1503,palt,2021.1.2,None,
2,kötény,tisztás,,,,,,,,,1,0,1,0,,,,,0,7,7,1,,,,,,,,,790.6576464053942,None,,,,,,,,,,,kötény,791.6899551340612,None,4,8.871362842153758,791.6899551340612,None,791.6899551340612,None,791.6899551340612,None, ,800.6042491744738,None,800.6042491744738,None,down,2.3173921129200608,800.6042491744738,None,802.977490503341,None,4,0.8884943928569555,802.977490503341,None,,,,,,,,,,,,,,,,,,,,,,,,,,,198059,2022_Apr_07_1503,palt,2021.1.2,None,
5,karton,hentes,,,,,,,,,1,0,1,0,,,,,0,8,8,4,,,,,,,,,803.899032890331,None,,,,,,,,,,,hentes,804.9246198085602,None,4,14.15085057518445,804.9246198085602,None,804.9246198085602,None,804.9246198085602,None, ,819.1194801568054,None,819.1194801568054,None,down,2.10615751799196,819.1194801568054,None,821.2606048976304,None,4,0.841740598436445,821.2606048976304,None,,,,,,,,,,,,,,,,,,,,,,,,,,,198059,2022_Apr_07_1503,palt,2021.1.2,None,
10,málna,dominó,,,,,,,,,1,0,1,0,,,,,0,9,9,9,,,,,,,,,822.1542884546798,None,,,,,,,,,,,dominó,823.1819728092523,None,None,,823.1819728092523,None,823.1819728092523,None,823.1819728092523,None, ,838.1919903687667,None,838.1919903687667,None,down,2.6658806464402005,838.1919903687667,None,840.9047569879331,None,4,0.9135868088342249,840.9047569879331,None,,,,,,,,,,,,,,,,,,,,,,,,,,,198059,2022_Apr_07_1503,palt,2021.1.2,None,
,,,,,,,,,,,1,0,1,0,,,,,,,,,,,,,,,,,,,,,,,,,,,,,,,,,,,,,,,,,,,,,,,,,,,,,,,,,,,,,,,,,,,,,,,,,,,4,35.284795702202246,841.8872320124647,None,841.8872320124647,None,198059,2022_Apr_07_1503,palt,2021.1.2,None,
3,fogó,limonádé,,,,,,,,,2,0,2,0,0,0,0,2,,,,,,,,,,,,,881.2256106170826,None,882.2258930121316,None,882.2258930121316,None,,,,,,,,,,,,,,,,,,,,,,,,,,,,,,,,,,,,,,,877.2015115598915,None,,,,,,,,,,,,,,,,,,,198059,2022_Apr_07_1503,palt,2021.1.2,None,
9,szilva,kecske,,,,,,,,,2,0,2,0,0,1,1,8,,,,,,,,,,,,,888.2140731627587,None,889.2282557379222,None,889.2282557379222,None,,,,,,,,,,,,,,,,,,,,,,,,,,,,,,,,,,,,,,,,,,,,,,,,,,,,,,,,,,,198059,2022_Apr_07_1503,palt,2021.1.2,None,
1,bagoly,kirakó,,,,,,,,,2,0,2,0,0,2,2,0,,,,,,,,,,,,,895.2062261262909,None,896.2371735740453,None,896.2371735740453,None,,,,,,,,,,,,,,,,,,,,,,,,,,,,,,,,,,,,,,,,,,,,,,,,,,,,,,,,,,,198059,2022_Apr_07_1503,palt,2021.1.2,None,
2,kötény,tisztás,,,,,,,,,2,0,2,0,0,3,3,1,,,,,,,,,,,,,902.2178680791985,None,903.2342081151437,None,903.2342081151437,None,,,,,,,,,,,,,,,,,,,,,,,,,,,,,,,,,,,,,,,,,,,,,,,,,,,,,,,,,,,198059,2022_Apr_07_1503,palt,2021.1.2,None,
8,szalvéta,puska,,,,,,,,,2,0,2,0,0,4,4,7,,,,,,,,,,,,,909.211124187219,None,910.230608822545,None,910.230608822545,None,,,,,,,,,,,,,,,,,,,,,,,,,,,,,,,,,,,,,,,,,,,,,,,,,,,,,,,,,,,198059,2022_Apr_07_1503,palt,2021.1.2,None,
6,menta,triatlon,,,,,,,,,2,0,2,0,0,5,5,5,,,,,,,,,,,,,916.2179610705934,None,917.2195895070909,None,917.2195895070909,None,,,,,,,,,,,,,,,,,,,,,,,,,,,,,,,,,,,,,,,,,,,,,,,,,,,,,,,,,,,198059,2022_Apr_07_1503,palt,2021.1.2,None,
5,karton,hentes,,,,,,,,,2,0,2,0,0,6,6,4,,,,,,,,,,,,,923.205503344303,None,924.2320263958536,None,924.2320263958536,None,,,,,,,,,,,,,,,,,,,,,,,,,,,,,,,,,,,,,,,,,,,,,,,,,,,,,,,,,,,198059,2022_Apr_07_1503,palt,2021.1.2,None,
7,csavarhúzó,hering,,,,,,,,,2,0,2,0,0,7,7,6,,,,,,,,,,,,,930.2206487994408,None,931.2640098104021,None,931.2640098104021,None,,,,,,,,,,,,,,,,,,,,,,,,,,,,,,,,,,,,,,,,,,,,,,,,,,,,,,,,,,,198059,2022_Apr_07_1503,palt,2021.1.2,None,
4,mocsár,ananász,,,,,,,,,2,0,2,0,0,8,8,3,,,,,,,,,,,,,937.2116777810734,None,938.2275687218644,None,938.2275687218644,None,,,,,,,,,,,,,,,,,,,,,,,,,,,,,,,,,,,,,,,,,,,,,,,,,,,,,,,,,,,198059,2022_Apr_07_1503,palt,2021.1.2,None,
10,málna,dominó,,,,,,,,,2,0,2,0,0,9,9,9,,,,,,,,,,,,,944.2218352940399,None,945.2276060427539,None,945.2276060427539,None,,,,,,,,,,,,,,,,,,,,,,,,,,,,,,,,,,,,,,,,,,,,,,,,,,,,,,,,,,,198059,2022_Apr_07_1503,palt,2021.1.2,None,
3,fogó,limonádé,,,,,,,,,2,0,2,0,,,,,0,0,0,2,,,,,,,,,960.8203115427168,None,,,,,,,,,,,fogó,961.8621053856332,None,4,2.1362776851747185,961.8621053856332,None,961.8621053856332,None,961.8621053856332,None, limonádé,964.0429131598212,None,964.0429131598212,None,down,4.477550527895801,964.0429131598212,None,968.5970605413895,None,4,0.9819854983361438,968.5970605413895,None,,,,,,,956.7999336931389,None,951.2229151129723,None,u,3.9856631649890915,951.2229151129723,None,955.2503767858725,None,4,1.4979470378020778,955.2503767858725,None,,,,,,,198059,2022_Apr_07_1503,palt,2021.1.2,None,
1,bagoly,kirakó,,,,,,,,,2,0,2,0,,,,,0,1,1,0,,,,,,,,,969.6189408693463,None,,,,,,,,,,,kirakó,970.6381679902552,None,4,4.4351695022778586,970.6381679902552,None,970.6381679902552,None,970.6381679902552,None, bagoly,975.1210756265791,None,975.1210756265791,None,down,3.127100468496792,975.1210756265791,None,978.3071422306821,None,4,1.1282642595469952,978.3071422306821,None,,,,,,,,,,,,,,,,,,,,,,,,,,,198059,2022_Apr_07_1503,palt,2021.1.2,None,
5,karton,hentes,,,,,,,,,2,0,2,0,,,,,0,2,2,4,,,,,,,,,979.4770942794858,None,,,,,,,,,,,hentes,980.4978898124536,None,None,,980.4978898124536,None,980.4978898124536,None,980.4978898124536,None, ,995.5004484731471,None,995.5004484731471,None,down,2.6676779601257294,995.5004484731471,None,998.2203866199125,None,4,0.8802822333527729,998.2203866199125,None,,,,,,,,,,,,,,,,,,,,,,,,,,,198059,2022_Apr_07_1503,palt,2021.1.2,None,
7,csavarhúzó,hering,,,,,,,,,2,0,2,0,,,,,0,3,3,6,,,,,,,,,999.1430088258348,None,,,,,,,,,,,csavarhúzó,1000.1710119632771,None,4,1.372052346356213,1000.1710119632771,None,1000.1710119632771,None,1000.1710119632771,None, hering,1001.6020487946225,None,1001.6020487946225,None,down,3.9576970373746008,1001.6020487946225,None,1005.6337799819885,None,4,1.0083996972534806,1005.6337799819885,None,,,,,,,,,,,,,,,,,,,,,,,,,,,198059,2022_Apr_07_1503,palt,2021.1.2,None,
9,szilva,kecske,,,,,,,,,2,0,2,0,,,,,0,4,4,8,,,,,,,,,1006.6919499377254,None,,,,,,,,,,,szilva,1007.7536324149696,None,4,2.072067959001288,1007.7536324149696,None,1007.7536324149696,None,1007.7536324149696,None, kecske,1009.8676332372706,None,1009.8676332372706,None,down,2.892441081115976,1009.8676332372706,None,1012.7917022511829,None,4,0.9912376678548753,1012.7917022511829,None,,,,,,,,,,,,,,,,,,,,,,,,,,,198059,2022_Apr_07_1503,palt,2021.1.2,None,
2,kötény,tisztás,,,,,,,,,2,0,2,0,,,,,0,5,5,1,,,,,,,,,1013.8318150972482,None,,,,,,,,,,,kötény,1014.8630937682465,None,None,,1014.8630937682465,None,1014.8630937682465,None,1014.8630937682465,None, ,1029.872944938601,None,1029.872944938601,None,down,2.086920444853604,1029.872944938601,None,1032.003225461347,None,4,0.7388374654110521,1032.003225461347,None,,,,,,,,,,,,,,,,,,,,,,,,,,,198059,2022_Apr_07_1503,palt,2021.1.2,None,
4,mocsár,ananász,,,,,,,,,2,0,2,0,,,,,0,6,6,3,,,,,,,,,1032.7848774971208,None,,,,,,,,,,,ananász,1033.8149668745464,None,4,0.894737251335755,1033.8149668745464,None,1033.8149668745464,None,1033.8149668745464,None, mocsár,1034.7430080793565,None,1034.7430080793565,None,down,4.352731612045318,1034.7430080793565,None,1039.188094063662,None,4,0.9206130957463756,1039.188094063662,None,,,,,,,,,,,,,,,,,,,,,,,,,,,198059,2022_Apr_07_1503,palt,2021.1.2,None,
8,szalvéta,puska,,,,,,,,,2,0,2,0,,,,,0,7,7,7,,,,,,,,,1040.1423560205149,None,,,,,,,,,,,szalvéta,1041.1823108746903,None,4,4.481531115947291,1041.1823108746903,None,1041.1823108746903,None,1041.1823108746903,None, puska,1045.7019566119416,None,1045.7019566119416,None,down,4.2740227048052475,1045.7019566119416,None,1050.0072343512438,None,4,1.0053291176445782,1050.0072343512438,None,,,,,,,,,,,,,,,,,,,,,,,,,,,198059,2022_Apr_07_1503,palt,2021.1.2,None,
6,menta,triatlon,,,,,,,,,2,0,2,0,,,,,0,8,8,5,,,,,,,,,1051.0456005777232,None,,,,,,,,,,,menta,1052.090292701847,None,4,1.119227618444711,1052.090292701847,None,1052.090292701847,None,1052.090292701847,None, triatlon,1053.2774182873545,None,1053.2774182873545,None,down,4.570178275927901,1053.2774182873545,None,1057.904838782968,None,4,0.6879590862663463,1057.904838782968,None,,,,,,,,,,,,,,,,,,,,,,,,,,,198059,2022_Apr_07_1503,palt,2021.1.2,None,
10,málna,dominó,,,,,,,,,2,0,2,0,,,,,0,9,9,9,,,,,,,,,1058.6423529104795,None,,,,,,,,,,,dominó,1059.6598265696084,None,4,2.414921032031998,1059.6598265696084,None,1059.6598265696084,None,1059.6598265696084,None, málna,1062.134567453526,None,1062.134567453526,None,down,3.9687144868075848,1062.134567453526,None,1066.1333753608633,None,4,0.9567633921978995,1066.1333753608633,None,,,,,,,,,,,,,,,,,,,,,,,,,,,198059,2022_Apr_07_1503,palt,2021.1.2,None,
,,,,,,,,,,,2,0,2,0,,,,,,,,,,,,,,,,,,,,,,,,,,,,,,,,,,,,,,,,,,,,,,,,,,,,,,,,,,,,,,,,,,,,,,,,,,,4,25.051422331715003,1067.1699501827825,None,1067.1699501827825,None,198059,2022_Apr_07_1503,palt,2021.1.2,None,
6,menta,triatlon,,,,,,,,,3,0,3,0,0,0,0,5,,,,,,,,,,,,,1096.2915996186202,None,1097.2864872732898,None,1097.2864872732898,None,,,,,,,,,,,,,,,,,,,,,,,,,,,,,,,,,,,,,,,1092.272513695294,None,,,,,,,,,,,,,,,,,,,198059,2022_Apr_07_1503,palt,2021.1.2,None,
3,fogó,limonádé,,,,,,,,,3,0,3,0,0,1,1,2,,,,,,,,,,,,,1103.300308146514,None,1104.299600292812,None,1104.299600292812,None,,,,,,,,,,,,,,,,,,,,,,,,,,,,,,,,,,,,,,,,,,,,,,,,,,,,,,,,,,,198059,2022_Apr_07_1503,palt,2021.1.2,None,
10,málna,dominó,,,,,,,,,3,0,3,0,0,2,2,9,,,,,,,,,,,,,1110.2860114313662,None,1111.285899779643,None,1111.285899779643,None,,,,,,,,,,,,,,,,,,,,,,,,,,,,,,,,,,,,,,,,,,,,,,,,,,,,,,,,,,,198059,2022_Apr_07_1503,palt,2021.1.2,None,
7,csavarhúzó,hering,,,,,,,,,3,0,3,0,0,3,3,6,,,,,,,,,,,,,1117.276156840031,None,1118.313141259132,None,1118.313141259132,None,,,,,,,,,,,,,,,,,,,,,,,,,,,,,,,,,,,,,,,,,,,,,,,,,,,,,,,,,,,198059,2022_Apr_07_1503,palt,2021.1.2,None,
5,karton,hentes,,,,,,,,,3,0,3,0,0,4,4,4,,,,,,,,,,,,,1124.2790299295448,None,1125.2949112290516,None,1125.2949112290516,None,,,,,,,,,,,,,,,,,,,,,,,,,,,,,,,,,,,,,,,,,,,,,,,,,,,,,,,,,,,198059,2022_Apr_07_1503,palt,2021.1.2,None,
2,kötény,tisztás,,,,,,,,,3,0,3,0,0,5,5,1,,,,,,,,,,,,,1131.2992752897553,None,1132.2935835369863,None,1132.2935835369863,None,,,,,,,,,,,,,,,,,,,,,,,,,,,,,,,,,,,,,,,,,,,,,,,,,,,,,,,,,,,198059,2022_Apr_07_1503,palt,2021.1.2,None,
9,szilva,kecske,,,,,,,,,3,0,3,0,0,6,6,8,,,,,,,,,,,,,1138.2943423958495,None,1139.298907989636,None,1139.298907989636,None,,,,,,,,,,,,,,,,,,,,,,,,,,,,,,,,,,,,,,,,,,,,,,,,,,,,,,,,,,,198059,2022_Apr_07_1503,palt,2021.1.2,None,
4,mocsár,ananász,,,,,,,,,3,0,3,0,0,7,7,3,,,,,,,,,,,,,1145.293152169208,None,1146.3008987501962,None,1146.3008987501962,None,,,,,,,,,,,,,,,,,,,,,,,,,,,,,,,,,,,,,,,,,,,,,,,,,,,,,,,,,,,198059,2022_Apr_07_1503,palt,2021.1.2,None,
8,szalvéta,puska,,,,,,,,,3,0,3,0,0,8,8,7,,,,,,,,,,,,,1152.285711620003,None,1153.3049695305526,None,1153.3049695305526,None,,,,,,,,,,,,,,,,,,,,,,,,,,,,,,,,,,,,,,,,,,,,,,,,,,,,,,,,,,,198059,2022_Apr_07_1503,palt,2021.1.2,None,
1,bagoly,kirakó,,,,,,,,,3,0,3,0,0,9,9,0,,,,,,,,,,,,,1159.2979693682864,None,1160.2981553508434,None,1160.2981553508434,None,,,,,,,,,,,,,,,,,,,,,,,,,,,,,,,,,,,,,,,,,,,,,,,,,,,,,,,,,,,198059,2022_Apr_07_1503,palt,2021.1.2,None,
4,mocsár,ananász,,,,,,,,,3,0,3,0,,,,,0,0,0,3,,,,,,,,,1174.413158240146,None,,,,,,,,,,,ananász,1175.4113447539276,None,4,0.945478787063621,1175.4113447539276,None,1175.4113447539276,None,1175.4113447539276,None, mocsár,1176.3949238560162,None,1176.3949238560162,None,down,3.9476486881030723,1176.3949238560162,None,1180.399429425248,None,4,1.2673746033106,1180.399429425248,None,,,,,,,1170.385716160643,None,1166.2850056323223,None,u,2.9059574777493253,1166.2850056323223,None,1169.2409927492263,None,4,1.0886885238578543,1169.2409927492263,None,,,,,,,198059,2022_Apr_07_1503,palt,2021.1.2,None,
8,szalvéta,puska,,,,,,,,,3,0,3,0,,,,,0,1,1,7,,,,,,,,,1181.70028276823,None,,,,,,,,,,,szalvéta,1182.7334072702797,None,4,1.3202412549871951,1182.7334072702797,None,1182.7334072702797,None,1182.7334072702797,None, puska,1184.08709181007,None,1184.08709181007,None,down,2.7681200887309387,1184.08709181007,None,1186.8873023001943,None,4,0.8872587591176853,1186.8873023001943,None,,,,,,,,,,,,,,,,,,,,,,,,,,,198059,2022_Apr_07_1503,palt,2021.1.2,None,
5,karton,hentes,,,,,,,,,3,0,3,0,,,,,0,2,2,4,,,,,,,,,1187.8244342614198,None,,,,,,,,,,,hentes,1188.8505729073659,None,4,3.941292311763391,1188.8505729073659,None,1188.8505729073659,None,1188.8505729073659,None, karton,1192.8418239484308,None,1192.8418239484308,None,down,3.341285282978788,1192.8418239484308,None,1196.2171648907242,None,4,0.9249420126434416,1196.2171648907242,None,,,,,,,,,,,,,,,,,,,,,,,,,,,198059,2022_Apr_07_1503,palt,2021.1.2,None,
9,szilva,kecske,,,,,,,,,3,0,3,0,,,,,0,3,3,8,,,,,,,,,1197.1740094558336,None,,,,,,,,,,,szilva,1198.1924363538856,None,4,2.105430692783557,1198.1924363538856,None,1198.1924363538856,None,1198.1924363538856,None, kecske,1200.3326719235629,None,1200.3326719235629,None,down,3.04997801175341,1200.3326719235629,None,1203.4237063787878,None,4,0.8817106918431818,1203.4237063787878,None,,,,,,,,,,,,,,,,,,,,,,,,,,,198059,2022_Apr_07_1503,palt,2021.1.2,None,
7,csavarhúzó,hering,,,,,,,,,3,0,3,0,,,,,0,4,4,6,,,,,,,,,1204.3566683481913,None,,,,,,,,,,,csavarhúzó,1205.38894442108,None,4,1.5652904780581594,1205.38894442108,None,1205.38894442108,None,1205.38894442108,None, hering,1207.013813409023,None,1207.013813409023,None,down,2.94482411572244,1207.013813409023,None,1209.9988536254968,None,4,0.742756474064663,1209.9988536254968,None,,,,,,,,,,,,,,,,,,,,,,,,,,,198059,2022_Apr_07_1503,palt,2021.1.2,None,
3,fogó,limonádé,,,,,,,,,3,0,3,0,,,,,0,5,5,2,,,,,,,,,1210.7920795035316,None,,,,,,,,,,,fogó,1211.8266119376058,None,4,2.6473057088442147,1211.8266119376058,None,1211.8266119376058,None,1211.8266119376058,None, limonádé,1214.5090095833875,None,1214.5090095833875,None,down,4.665487532620318,1214.5090095833875,None,1219.225596621749,None,4,0.6448907336452976,1219.225596621749,None,,,,,,,,,,,,,,,,,,,,,,,,,,,198059,2022_Apr_07_1503,palt,2021.1.2,None,
1,bagoly,kirakó,,,,,,,,,3,0,3,0,,,,,0,6,6,0,,,,,,,,,1219.9075044302735,None,,,,,,,,,,,kirakó,1220.929831676418,None,4,1.3186342779081315,1220.929831676418,None,1220.929831676418,None,1220.929831676418,None, bagoly,1222.2923233335605,None,1222.2923233335605,None,down,2.866414397954941,1222.2923233335605,None,1225.2037212698488,None,4,0.7085474880877882,1225.2037212698488,None,,,,,,,,,,,,,,,,,,,,,,,,,,,198059,2022_Apr_07_1503,palt,2021.1.2,None,
2,kötény,tisztás,,,,,,,,,3,0,3,0,,,,,0,7,7,1,,,,,,,,,1225.9684395559598,None,,,,,,,,,,,kötény,1226.9907217059517,None,4,2.9755507480585948,1226.9907217059517,None,1226.9907217059517,None,1226.9907217059517,None, tisztás,1230.0264076676685,None,1230.0264076676685,None,down,3.580169710679911,1230.0264076676685,None,1233.65672986547,None,4,0.69859461823944,1233.65672986547,None,,,,,,,,,,,,,,,,,,,,,,,,,,,198059,2022_Apr_07_1503,palt,2021.1.2,None,
10,málna,dominó,,,,,,,,,3,0,3,0,,,,,0,8,8,9,,,,,,,,,1234.3908533866052,None,,,,,,,,,,,dominó,1235.4143207870657,None,4,4.266969982185401,1235.4143207870657,None,1235.4143207870657,None,1235.4143207870657,None, málna,1239.7203104230575,None,1239.7203104230575,None,down,2.9258706816472113,1239.7203104230575,None,1242.6980979387881,None,4,0.76308549544774,1242.6980979387881,None,,,,,,,,,,,,,,,,,,,,,,,,,,,198059,2022_Apr_07_1503,palt,2021.1.2,None,
6,menta,triatlon,,,,,,,,,3,0,3,0,,,,,0,9,9,5,,,,,,,,,1243.4909079995705,None,,,,,,,,,,,menta,1244.5277285176562,None,4,1.0931710784789175,1244.5277285176562,None,1244.5277285176562,None,1244.5277285176562,None, triatlon,1245.6817709652241,None,1245.6817709652241,None,down,3.8602399611845613,1245.6817709652241,None,1249.5732684488175,None,4,0.5817151082446799,1249.5732684488175,None,,,,,,,,,,,,,,,,,,,,,,,,,,,198059,2022_Apr_07_1503,palt,2021.1.2,None,
