itemno,wordA,wordB,enc_gyak.thisRepN,enc_gyak.thisTrialN,enc_gyak.thisN,enc_gyak.thisIndex,rec_gyak.thisRepN,rec_gyak.thisTrialN,rec_gyak.thisN,rec_gyak.thisIndex,repeat_task.thisRepN,repeat_task.thisTrialN,repeat_task.thisN,repeat_task.thisIndex,enc_loop.thisRepN,enc_loop.thisTrialN,enc_loop.thisN,enc_loop.thisIndex,test_loop.thisRepN,test_loop.thisTrialN,test_loop.thisN,test_loop.thisIndex,int.started,int.stopped,int_key.keys,int_key.rt,int_key.started,int_key.stopped,prepare_gyak_text.started,prepare_gyak_text.stopped,fix.started,fix.stopped,word1.started,word1.stopped,word2.started,word2.stopped,gykrec_inst.started,gykrec_inst.stopped,gyakrec_inst.keys,gyakrec_inst.rt,gyakrec_inst.started,gyakrec_inst.stopped,cueword,cueword1.started,cueword1.stopped,cue_resp.keys,cue_resp.rt,cue_resp.started,cue_resp.stopped,cue_cont_text.started,cue_cont_text.stopped,cue_space.started,cue_space.stopped,test_ansbox.text,test_ansbox.started,test_ansbox.stopped,ans_text.started,ans_text.stopped,ans_continue.keys,ans_continue.rt,ans_continue.started,ans_continue.stopped,feedback_text.started,feedback_text.stopped,feedback_cont.keys,feedback_cont.rt,feedback_cont.started,feedback_cont.stopped,main_prep.started,main_prep.stopped,main_prep_resp.keys,main_prep_resp.rt,main_prep_resp.started,main_prep_resp.stopped,preparation.started,preparation.stopped,break_text.started,break_text.stopped,key_resp.keys,key_resp.rt,key_resp.started,key_resp.stopped,test_instruction.started,test_instruction.stopped,test_i_key.keys,test_i_key.rt,test_i_key.started,test_i_key.stopped,rep_routine.keys,rep_routine.rt,rep_routine.started,rep_routine.stopped,encrep_textbox.started,encrep_textbox.stopped,Résztvevő kódja,date,expName,psychopyVersion,frameRate,
,,,,,,,,,,,,,,,,,,,,,,,35.04824846773408,None,4,132.8787810743088,35.04824846773408,None,,,,,,,,,,,,,,,,,,,,,,,,,,,,,,,,,,,,,,,,,,,,,,,,,,,,,,,,,,,,,,,,,,,729477,2022_Apr_20_1836,palt,2021.1.2,58.452834771831355,
2,lepke,szintetizátor,0,0,0,1,,,,,,,,,,,,,,,,,,,,,,,167.95850288425572,None,170.98397098178975,None,171.96938503859565,None,171.96938503859565,None,,,,,,,,,,,,,,,,,,,,,,,,,,,,,,,,,,,,,,,,,,,,,,,,,,,,,,,,,,,729477,2022_Apr_20_1836,palt,2021.1.2,58.452834771831355,
1,sapka,beton,0,1,1,0,,,,,,,,,,,,,,,,,,,,,,,,,177.96728822565638,None,178.98474570154212,None,178.98474570154212,None,,,,,,,,,,,,,,,,,,,,,,,,,,,,,,,,,,,,,,,,,,,,,,,,,,,,,,,,,,,729477,2022_Apr_20_1836,palt,2021.1.2,58.452834771831355,
4,kard,harcsa,0,2,2,3,,,,,,,,,,,,,,,,,,,,,,,,,184.9640105171129,None,185.97625986055937,None,185.97625986055937,None,,,,,,,,,,,,,,,,,,,,,,,,,,,,,,,,,,,,,,,,,,,,,,,,,,,,,,,,,,,729477,2022_Apr_20_1836,palt,2021.1.2,58.452834771831355,
3,majoránna,szikla,0,3,3,2,,,,,,,,,,,,,,,,,,,,,,,,,191.96611883724108,None,192.99133688467555,None,192.99133688467555,None,,,,,,,,,,,,,,,,,,,,,,,,,,,,,,,,,,,,,,,,,,,,,,,,,,,,,,,,,,,729477,2022_Apr_20_1836,palt,2021.1.2,58.452834771831355,
,,,,,,,,,,,,,,,,,,,,,,,,,,,,,,,,,,,,,198.96690848539583,None,4,11.137755508185364,198.96690848539583,None,,,,,,,,,,,,,,,,,,,,,,,,,,,,,,,,,,,,,,,,,,,,,,,,,,,,,729477,2022_Apr_20_1836,palt,2021.1.2,58.452834771831355,
4,kard,harcsa,,,,,0,0,0,3,,,,,,,,,,,,,,,,,,,,,210.14155570953153,None,,,,,,,,,,,kard,211.1537008654559,None,4,1.92020728031639,211.1537008654559,None,211.1537008654559,None,211.1537008654559,None, harcsa,213.13550599070732,None,213.13550599070732,None,down,4.072071957285516,213.13550599070732,None,217.2757921674056,None,4,2.425835272995755,217.2757921674056,None,,,,,,,,,,,,,,,,,,,,,,,,,,,729477,2022_Apr_20_1836,palt,2021.1.2,58.452834771831355,
2,lepke,szintetizátor,,,,,0,1,1,1,,,,,,,,,,,,,,,,,,,,,219.7348430469865,None,,,,,,,,,,,szintetizátor,220.75714228849392,None,4,1.6863351989304647,220.75714228849392,None,220.75714228849392,None,220.75714228849392,None, lepke,222.4755156195024,None,222.4755156195024,None,down,2.5240293765673414,222.4755156195024,None,225.03167332021985,None,4,41.58455766632687,225.03167332021985,None,,,,,,,,,,,,,,,,,,,,,,,,,,,729477,2022_Apr_20_1836,palt,2021.1.2,58.452834771831355,
3,majoránna,szikla,,,,,0,2,2,2,,,,,,,,,,,,,,,,,,,,,266.6518684090115,None,,,,,,,,,,,majoránna,267.6711129343603,None,4,5.748011728748679,267.6711129343603,None,267.6711129343603,None,267.6711129343603,None, szikla,273.45199069718365,None,273.45199069718365,None,down,3.2593691025394946,273.45199069718365,None,276.7312568188645,None,4,2.1868807062273845,276.7312568188645,None,,,,,,,,,,,,,,,,,,,,,,,,,,,729477,2022_Apr_20_1836,palt,2021.1.2,58.452834771831355,
1,sapka,beton,,,,,0,3,3,0,,,,,,,,,,,,,,,,,,,,,278.9509525540052,None,,,,,,,,,,,beton,279.9711437863298,None,4,6.156123303342611,279.9711437863298,None,279.9711437863298,None,279.9711437863298,None, sapka,286.1651568287052,None,286.1651568287052,None,down,8.30594434950035,286.1651568287052,None,294.50806722487323,None,4,1.8179029009770602,294.50806722487323,None,,,,,,,,,,,,,,,,,,,,,,,,,,,729477,2022_Apr_20_1836,palt,2021.1.2,58.452834771831355,
,,,,,,,,,,,,,,,,,,,,,,,,,,,,,,,,,,,,,,,,,,,,,,,,,,,,,,,,,,,,,,,,,,,,,296.3489902828587,None,4,9.783109241980128,296.3489902828587,None,,,,,,,,,,,,,,,,,,,,,729477,2022_Apr_20_1836,palt,2021.1.2,58.452834771831355,
3,fogó,limonádé,,,,,,,,,0,0,0,0,0,0,0,2,,,,,,,,,,,,,310.1834151491057,None,311.18376658763736,None,311.18376658763736,None,,,,,,,,,,,,,,,,,,,,,,,,,,,,,,,,,,,,,,,306.1679297720548,None,,,,,,,,,,,,,,,,,,,729477,2022_Apr_20_1836,palt,2021.1.2,58.452834771831355,
7,csavarhúzó,hering,,,,,,,,,0,0,0,0,0,1,1,6,,,,,,,,,,,,,317.1747688280884,None,318.1999887415441,None,318.1999887415441,None,,,,,,,,,,,,,,,,,,,,,,,,,,,,,,,,,,,,,,,,,,,,,,,,,,,,,,,,,,,729477,2022_Apr_20_1836,palt,2021.1.2,58.452834771831355,
8,szalvéta,puska,,,,,,,,,0,0,0,0,0,2,2,7,,,,,,,,,,,,,324.1797682745382,None,325.1925786755746,None,325.1925786755746,None,,,,,,,,,,,,,,,,,,,,,,,,,,,,,,,,,,,,,,,,,,,,,,,,,,,,,,,,,,,729477,2022_Apr_20_1836,palt,2021.1.2,58.452834771831355,
10,málna,dominó,,,,,,,,,0,0,0,0,0,3,3,9,,,,,,,,,,,,,331.1651711349841,None,332.19332073966507,None,332.19332073966507,None,,,,,,,,,,,,,,,,,,,,,,,,,,,,,,,,,,,,,,,,,,,,,,,,,,,,,,,,,,,729477,2022_Apr_20_1836,palt,2021.1.2,58.452834771831355,
1,bagoly,kirakó,,,,,,,,,0,0,0,0,0,4,4,0,,,,,,,,,,,,,338.1638571281219,None,339.19250869890675,None,339.19250869890675,None,,,,,,,,,,,,,,,,,,,,,,,,,,,,,,,,,,,,,,,,,,,,,,,,,,,,,,,,,,,729477,2022_Apr_20_1836,palt,2021.1.2,58.452834771831355,
4,mocsár,ananász,,,,,,,,,0,0,0,0,0,5,5,3,,,,,,,,,,,,,345.16636664804537,None,346.19418938376475,None,346.19418938376475,None,,,,,,,,,,,,,,,,,,,,,,,,,,,,,,,,,,,,,,,,,,,,,,,,,,,,,,,,,,,729477,2022_Apr_20_1836,palt,2021.1.2,58.452834771831355,
2,kötény,tisztás,,,,,,,,,0,0,0,0,0,6,6,1,,,,,,,,,,,,,352.16644502198324,None,353.18362321308814,None,353.18362321308814,None,,,,,,,,,,,,,,,,,,,,,,,,,,,,,,,,,,,,,,,,,,,,,,,,,,,,,,,,,,,729477,2022_Apr_20_1836,palt,2021.1.2,58.452834771831355,
6,menta,triatlon,,,,,,,,,0,0,0,0,0,7,7,5,,,,,,,,,,,,,359.17912448884454,None,360.17064393498003,None,360.17064393498003,None,,,,,,,,,,,,,,,,,,,,,,,,,,,,,,,,,,,,,,,,,,,,,,,,,,,,,,,,,,,729477,2022_Apr_20_1836,palt,2021.1.2,58.452834771831355,
9,szilva,kecske,,,,,,,,,0,0,0,0,0,8,8,8,,,,,,,,,,,,,366.1647556289099,None,367.19409670343157,None,367.19409670343157,None,,,,,,,,,,,,,,,,,,,,,,,,,,,,,,,,,,,,,,,,,,,,,,,,,,,,,,,,,,,729477,2022_Apr_20_1836,palt,2021.1.2,58.452834771831355,
5,karton,hentes,,,,,,,,,0,0,0,0,0,9,9,4,,,,,,,,,,,,,373.16730246983934,None,374.1842837932054,None,374.1842837932054,None,,,,,,,,,,,,,,,,,,,,,,,,,,,,,,,,,,,,,,,,,,,,,,,,,,,,,,,,,,,729477,2022_Apr_20_1836,palt,2021.1.2,58.452834771831355,
4,mocsár,ananász,,,,,,,,,0,0,0,0,,,,,0,0,0,3,,,,,,,,,391.71792641317006,None,,,,,,,,,,,mocsár,392.71029273280874,None,4,3.903782660374418,392.71029273280874,None,392.71029273280874,None,392.71029273280874,None, ananász,396.6607311911648,None,396.6607311911648,None,down,4.353323240065947,396.6607311911648,None,401.0405603609979,None,4,1.7416320308111608,401.0405603609979,None,,,,,,,387.69629801495466,None,380.1703621620545,None,u,5.020244103623554,380.1703621620545,None,385.2466915016994,None,4,2.4174912513699383,385.2466915016994,None,,,,,,,729477,2022_Apr_20_1836,palt,2021.1.2,58.452834771831355,
5,karton,hentes,,,,,,,,,0,0,0,0,,,,,0,1,1,4,,,,,,,,,402.80813042167574,None,,,,,,,,,,,karton,403.81858773960266,None,4,11.122407285496593,403.81858773960266,None,403.81858773960266,None,403.81858773960266,None, hering,414.97625675040763,None,414.97625675040763,None,down,3.6855517709627748,414.97625675040763,None,418.71090821677353,None,4,4.546261440496892,418.71090821677353,None,,,,,,,,,,,,,,,,,,,,,,,,,,,729477,2022_Apr_20_1836,palt,2021.1.2,58.452834771831355,
1,bagoly,kirakó,,,,,,,,,0,0,0,0,,,,,0,2,2,0,,,,,,,,,423.2970905866241,None,,,,,,,,,,,kirakó,424.3145275360439,None,4,2.6743536330759525,424.3145275360439,None,424.3145275360439,None,424.3145275360439,None, bagoly,427.0225113487104,None,427.0225113487104,None,down,3.095557381515391,427.0225113487104,None,430.1527466942789,None,4,2.3772229264723137,430.1527466942789,None,,,,,,,,,,,,,,,,,,,,,,,,,,,729477,2022_Apr_20_1836,palt,2021.1.2,58.452834771831355,
3,fogó,limonádé,,,,,,,,,0,0,0,0,,,,,0,3,3,2,,,,,,,,,432.55069796321914,None,,,,,,,,,,,fogó,433.5721437999746,None,4,1.9276173462858424,433.5721437999746,None,433.5721437999746,None,433.5721437999746,None, lepke,435.536694226088,None,435.536694226088,None,down,3.0930792733561248,435.536694226088,None,438.69401304249186,None,4,3.5129736800445244,438.69401304249186,None,,,,,,,,,,,,,,,,,,,,,,,,,,,729477,2022_Apr_20_1836,palt,2021.1.2,58.452834771831355,
9,szilva,kecske,,,,,,,,,0,0,0,0,,,,,0,4,4,8,,,,,,,,,442.2373594091041,None,,,,,,,,,,,kecske,443.2458757288987,None,4,11.633956862031482,443.2458757288987,None,443.2458757288987,None,443.2458757288987,None, ,454.90525403723586,None,454.90525403723586,None,down,3.1004489082843065,454.90525403723586,None,458.0330218488816,None,4,4.92953532980755,458.0330218488816,None,,,,,,,,,,,,,,,,,,,,,,,,,,,729477,2022_Apr_20_1836,palt,2021.1.2,58.452834771831355,
8,szalvéta,puska,,,,,,,,,0,0,0,0,,,,,0,5,5,7,,,,,,,,,462.9900636196835,None,,,,,,,,,,,szalvéta,464.01301846513525,None,4,8.653544428641908,464.01301846513525,None,464.01301846513525,None,464.01301846513525,None, ,472.7108935993165,None,472.7108935993165,None,down,2.239026098512113,472.7108935993165,None,474.9833418135531,None,4,4.1091241530375555,474.9833418135531,None,,,,,,,,,,,,,,,,,,,,,,,,,,,729477,2022_Apr_20_1836,palt,2021.1.2,58.452834771831355,
6,menta,triatlon,,,,,,,,,0,0,0,0,,,,,0,6,6,5,,,,,,,,,479.12257833976764,None,,,,,,,,,,,menta,480.14661207038444,None,4,7.547626141575165,480.14661207038444,None,480.14661207038444,None,480.14661207038444,None, ,487.73404500156175,None,487.73404500156175,None,down,2.0313361879670992,487.73404500156175,None,489.80946868716273,None,4,5.050840093637817,489.80946868716273,None,,,,,,,,,,,,,,,,,,,,,,,,,,,729477,2022_Apr_20_1836,palt,2021.1.2,58.452834771831355,
10,málna,dominó,,,,,,,,,0,0,0,0,,,,,0,7,7,9,,,,,,,,,494.8933564432664,None,,,,,,,,,,,málna,495.9156895846827,None,4,13.855363449663855,495.9156895846827,None,495.9156895846827,None,495.9156895846827,None, ,509.8120823946083,None,509.8120823946083,None,down,1.8889951843302697,509.8120823946083,None,511.7418456929736,None,4,4.687268532579765,511.7418456929736,None,,,,,,,,,,,,,,,,,,,,,,,,,,,729477,2022_Apr_20_1836,palt,2021.1.2,58.452834771831355,
2,kötény,tisztás,,,,,,,,,0,0,0,0,,,,,0,8,8,1,,,,,,,,,516.4536085585132,None,,,,,,,,,,,tisztás,517.4832208316075,None,4,10.502681818092242,517.4832208316075,None,517.4832208316075,None,517.4832208316075,None, kalap,528.0249421837507,None,528.0249421837507,None,down,3.0040885052876547,528.0249421837507,None,531.0582644658862,None,4,1.777658834704198,531.0582644658862,None,,,,,,,,,,,,,,,,,,,,,,,,,,,729477,2022_Apr_20_1836,palt,2021.1.2,58.452834771831355,
7,csavarhúzó,hering,,,,,,,,,0,0,0,0,,,,,0,9,9,6,,,,,,,,,532.8779024779797,None,,,,,,,,,,,hering,533.9098093648208,None,4,6.359138770261779,533.9098093648208,None,533.9098093648208,None,533.9098093648208,None, csavarhúzó,540.3011408379534,None,540.3011408379534,None,down,4.712001719279215,540.3011408379534,None,545.0436900299974,None,4,2.003505988046527,545.0436900299974,None,,,,,,,,,,,,,,,,,,,,,,,,,,,729477,2022_Apr_20_1836,palt,2021.1.2,58.452834771831355,
,,,,,,,,,,,0,0,0,0,,,,,,,,,,,,,,,,,,,,,,,,,,,,,,,,,,,,,,,,,,,,,,,,,,,,,,,,,,,,,,,,,,,,,,,,,,,4,27.76977230515331,547.1208031085553,None,547.1208031085553,None,729477,2022_Apr_20_1836,palt,2021.1.2,58.452834771831355,
5,karton,hentes,,,,,,,,,1,0,1,0,0,0,0,4,,,,,,,,,,,,,578.9461425110931,None,579.9318380297627,None,579.9318380297627,None,,,,,,,,,,,,,,,,,,,,,,,,,,,,,,,,,,,,,,,574.9175478547113,None,,,,,,,,,,,,,,,,,,,729477,2022_Apr_20_1836,palt,2021.1.2,58.452834771831355,
7,csavarhúzó,hering,,,,,,,,,1,0,1,0,0,1,1,6,,,,,,,,,,,,,585.9312181917485,None,586.9434911718126,None,586.9434911718126,None,,,,,,,,,,,,,,,,,,,,,,,,,,,,,,,,,,,,,,,,,,,,,,,,,,,,,,,,,,,729477,2022_Apr_20_1836,palt,2021.1.2,58.452834771831355,
10,málna,dominó,,,,,,,,,1,0,1,0,0,2,2,9,,,,,,,,,,,,,592.9295129373204,None,593.9342368310317,None,593.9342368310317,None,,,,,,,,,,,,,,,,,,,,,,,,,,,,,,,,,,,,,,,,,,,,,,,,,,,,,,,,,,,729477,2022_Apr_20_1836,palt,2021.1.2,58.452834771831355,
3,fogó,limonádé,,,,,,,,,1,0,1,0,0,3,3,2,,,,,,,,,,,,,599.9284576886566,None,600.9478328372352,None,600.9478328372352,None,,,,,,,,,,,,,,,,,,,,,,,,,,,,,,,,,,,,,,,,,,,,,,,,,,,,,,,,,,,729477,2022_Apr_20_1836,palt,2021.1.2,58.452834771831355,
8,szalvéta,puska,,,,,,,,,1,0,1,0,0,4,4,7,,,,,,,,,,,,,606.9292765716091,None,607.946661271737,None,607.946661271737,None,,,,,,,,,,,,,,,,,,,,,,,,,,,,,,,,,,,,,,,,,,,,,,,,,,,,,,,,,,,729477,2022_Apr_20_1836,palt,2021.1.2,58.452834771831355,
4,mocsár,ananász,,,,,,,,,1,0,1,0,0,5,5,3,,,,,,,,,,,,,613.9296743501909,None,614.948103102739,None,614.948103102739,None,,,,,,,,,,,,,,,,,,,,,,,,,,,,,,,,,,,,,,,,,,,,,,,,,,,,,,,,,,,729477,2022_Apr_20_1836,palt,2021.1.2,58.452834771831355,
1,bagoly,kirakó,,,,,,,,,1,0,1,0,0,6,6,0,,,,,,,,,,,,,620.9226981397951,None,621.940165878972,None,621.940165878972,None,,,,,,,,,,,,,,,,,,,,,,,,,,,,,,,,,,,,,,,,,,,,,,,,,,,,,,,,,,,729477,2022_Apr_20_1836,palt,2021.1.2,58.452834771831355,
9,szilva,kecske,,,,,,,,,1,0,1,0,0,7,7,8,,,,,,,,,,,,,627.9300320089096,None,628.9477983153192,None,628.9477983153192,None,,,,,,,,,,,,,,,,,,,,,,,,,,,,,,,,,,,,,,,,,,,,,,,,,,,,,,,,,,,729477,2022_Apr_20_1836,palt,2021.1.2,58.452834771831355,
6,menta,triatlon,,,,,,,,,1,0,1,0,0,8,8,5,,,,,,,,,,,,,634.9289655640023,None,635.9470662035746,None,635.9470662035746,None,,,,,,,,,,,,,,,,,,,,,,,,,,,,,,,,,,,,,,,,,,,,,,,,,,,,,,,,,,,729477,2022_Apr_20_1836,palt,2021.1.2,58.452834771831355,
2,kötény,tisztás,,,,,,,,,1,0,1,0,0,9,9,1,,,,,,,,,,,,,641.9269604983274,None,642.9344862591242,None,642.9344862591242,None,,,,,,,,,,,,,,,,,,,,,,,,,,,,,,,,,,,,,,,,,,,,,,,,,,,,,,,,,,,729477,2022_Apr_20_1836,palt,2021.1.2,58.452834771831355,
3,fogó,limonádé,,,,,,,,,1,0,1,0,,,,,0,0,0,2,,,,,,,,,658.3696601558477,None,,,,,,,,,,,fogó,659.3571648054058,None,4,4.455656543141231,659.3571648054058,None,659.3571648054058,None,659.3571648054058,None,lepke,663.8648454479408,None,663.8648454479408,None,down,5.434907674323767,663.8648454479408,None,669.3481941035716,None,4,8.907522215275094,669.3481941035716,None,,,,,,,654.3466956692282,None,648.9273399275262,None,u,3.1726956516504288,648.9273399275262,None,652.1430951969232,None,4,2.1778471808647737,652.1430951969232,None,,,,,,,729477,2022_Apr_20_1836,palt,2021.1.2,58.452834771831355,
2,kötény,tisztás,,,,,,,,,1,0,1,0,,,,,0,1,1,1,,,,,,,,,678.2973288183566,None,,,,,,,,,,,tisztás,679.3245696588419,None,4,10.879009353928268,679.3245696588419,None,679.3245696588419,None,679.3245696588419,None, karton,690.2422857687343,None,690.2422857687343,None,down,13.921614278457128,690.2422857687343,None,704.1866418524878,None,4,6.666899714968167,704.1866418524878,None,,,,,,,,,,,,,,,,,,,,,,,,,,,729477,2022_Apr_20_1836,palt,2021.1.2,58.452834771831355,
4,mocsár,ananász,,,,,,,,,1,0,1,0,,,,,0,2,2,3,,,,,,,,,710.9000738954637,None,,,,,,,,,,,mocsár,711.9261789363809,None,4,2.1542074967874214,711.9261789363809,None,711.9261789363809,None,711.9261789363809,None, ananász,714.1250191270374,None,714.1250191270374,None,down,3.4784779662732035,714.1250191270374,None,717.6384247965179,None,4,1.564366745064035,717.6384247965179,None,,,,,,,,,,,,,,,,,,,,,,,,,,,729477,2022_Apr_20_1836,palt,2021.1.2,58.452834771831355,
8,szalvéta,puska,,,,,,,,,1,0,1,0,,,,,0,3,3,7,,,,,,,,,719.2305452335859,None,,,,,,,,,,,szalvéta,720.2621327156667,None,None,,720.2621327156667,None,720.2621327156667,None,720.2621327156667,None, ,735.2502615574049,None,735.2502615574049,None,down,2.176942148944363,735.2502615574049,None,737.4754213842098,None,4,2.460151846287772,737.4754213842098,None,,,,,,,,,,,,,,,,,,,,,,,,,,,729477,2022_Apr_20_1836,palt,2021.1.2,58.452834771831355,
10,málna,dominó,,,,,,,,,1,0,1,0,,,,,0,4,4,9,,,,,,,,,739.9644272672012,None,,,,,,,,,,,málna,740.9855067370227,None,4,1.9028381304815412,740.9855067370227,None,740.9855067370227,None,740.9855067370227,None, dominó,742.9187097789254,None,742.9187097789254,None,down,3.244877705583349,742.9187097789254,None,746.2112276215339,None,4,1.2470158825162798,746.2112276215339,None,,,,,,,,,,,,,,,,,,,,,,,,,,,729477,2022_Apr_20_1836,palt,2021.1.2,58.452834771831355,
5,karton,hentes,,,,,,,,,1,0,1,0,,,,,0,5,5,4,,,,,,,,,747.4861268860986,None,,,,,,,,,,,karton,748.5054955034284,None,4,2.051733307307586,748.5054955034284,None,748.5054955034284,None,748.5054955034284,None, hering,750.5938129401766,None,750.5938129401766,None,down,4.1935061000986025,750.5938129401766,None,754.8236008703243,None,4,3.5104554519057274,754.8236008703243,None,,,,,,,,,,,,,,,,,,,,,,,,,,,729477,2022_Apr_20_1836,palt,2021.1.2,58.452834771831355,
7,csavarhúzó,hering,,,,,,,,,1,0,1,0,,,,,0,6,6,6,,,,,,,,,758.3694601779571,None,,,,,,,,,,,hering,759.3947625084547,None,4,7.3672632205998525,759.3947625084547,None,759.3947625084547,None,759.3947625084547,None, csavarhúzó,766.7932362699648,None,766.7932362699648,None,down,4.649827888351865,766.7932362699648,None,771.485516067245,None,4,1.3034864568617195,771.485516067245,None,,,,,,,,,,,,,,,,,,,,,,,,,,,729477,2022_Apr_20_1836,palt,2021.1.2,58.452834771831355,
9,szilva,kecske,,,,,,,,,1,0,1,0,,,,,0,7,7,8,,,,,,,,,772.821326472098,None,,,,,,,,,,,kecske,773.8422289787559,None,4,2.7447816042695194,773.8422289787559,None,773.8422289787559,None,773.8422289787559,None, szalvéta,776.6205798052251,None,776.6205798052251,None,down,4.566333556897007,776.6205798052251,None,781.2257252385607,None,4,16.337190967286006,781.2257252385607,None,,,,,,,,,,,,,,,,,,,,,,,,,,,729477,2022_Apr_20_1836,palt,2021.1.2,58.452834771831355,
1,bagoly,kirakó,,,,,,,,,1,0,1,0,,,,,0,8,8,0,,,,,,,,,797.5875141042052,None,,,,,,,,,,,kirakó,798.6127657403704,None,4,1.410289871506393,798.6127657403704,None,798.6127657403704,None,798.6127657403704,None, bagoly,800.0637055430561,None,800.0637055430561,None,down,3.1231079855933785,800.0637055430561,None,803.2238327575615,None,4,1.380976476590149,803.2238327575615,None,,,,,,,,,,,,,,,,,,,,,,,,,,,729477,2022_Apr_20_1836,palt,2021.1.2,58.452834771831355,
6,menta,triatlon,,,,,,,,,1,0,1,0,,,,,0,9,9,5,,,,,,,,,804.6300938372733,None,,,,,,,,,,,menta,805.6460628310451,None,4,12.462874095421284,805.6460628310451,None,805.6460628310451,None,805.6460628310451,None, ,818.148738740012,None,818.148738740012,None,down,1.9659222804475576,818.148738740012,None,820.1534495713422,None,4,1.2383104702457786,820.1534495713422,None,,,,,,,,,,,,,,,,,,,,,,,,,,,729477,2022_Apr_20_1836,palt,2021.1.2,58.452834771831355,
,,,,,,,,,,,1,0,1,0,,,,,,,,,,,,,,,,,,,,,,,,,,,,,,,,,,,,,,,,,,,,,,,,,,,,,,,,,,,,,,,,,,,,,,,,,,,4,51.75349821290001,821.4399201830383,None,821.4399201830383,None,729477,2022_Apr_20_1836,palt,2021.1.2,58.452834771831355,
8,szalvéta,puska,,,,,,,,,2,0,2,0,0,0,0,7,,,,,,,,,,,,,877.2538748431252,None,878.2277250171173,None,878.2277250171173,None,,,,,,,,,,,,,,,,,,,,,,,,,,,,,,,,,,,,,,,873.2172981778858,None,,,,,,,,,,,,,,,,,,,729477,2022_Apr_20_1836,palt,2021.1.2,58.452834771831355,
7,csavarhúzó,hering,,,,,,,,,2,0,2,0,0,1,1,6,,,,,,,,,,,,,884.2285784218693,None,885.2422226341441,None,885.2422226341441,None,,,,,,,,,,,,,,,,,,,,,,,,,,,,,,,,,,,,,,,,,,,,,,,,,,,,,,,,,,,729477,2022_Apr_20_1836,palt,2021.1.2,58.452834771831355,
4,mocsár,ananász,,,,,,,,,2,0,2,0,0,2,2,3,,,,,,,,,,,,,891.2283317928668,None,892.2451485932106,None,892.2451485932106,None,,,,,,,,,,,,,,,,,,,,,,,,,,,,,,,,,,,,,,,,,,,,,,,,,,,,,,,,,,,729477,2022_Apr_20_1836,palt,2021.1.2,58.452834771831355,
5,karton,hentes,,,,,,,,,2,0,2,0,0,3,3,4,,,,,,,,,,,,,898.2178999774624,None,899.2268868517131,None,899.2268868517131,None,,,,,,,,,,,,,,,,,,,,,,,,,,,,,,,,,,,,,,,,,,,,,,,,,,,,,,,,,,,729477,2022_Apr_20_1836,palt,2021.1.2,58.452834771831355,
9,szilva,kecske,,,,,,,,,2,0,2,0,0,4,4,8,,,,,,,,,,,,,905.2250245384639,None,906.2345575420186,None,906.2345575420186,None,,,,,,,,,,,,,,,,,,,,,,,,,,,,,,,,,,,,,,,,,,,,,,,,,,,,,,,,,,,729477,2022_Apr_20_1836,palt,2021.1.2,58.452834771831355,
1,bagoly,kirakó,,,,,,,,,2,0,2,0,0,5,5,0,,,,,,,,,,,,,912.2202381322859,None,913.2350797236431,None,913.2350797236431,None,,,,,,,,,,,,,,,,,,,,,,,,,,,,,,,,,,,,,,,,,,,,,,,,,,,,,,,,,,,729477,2022_Apr_20_1836,palt,2021.1.2,58.452834771831355,
10,málna,dominó,,,,,,,,,2,0,2,0,0,6,6,9,,,,,,,,,,,,,919.2254786095582,None,920.243722312618,None,920.243722312618,None,,,,,,,,,,,,,,,,,,,,,,,,,,,,,,,,,,,,,,,,,,,,,,,,,,,,,,,,,,,729477,2022_Apr_20_1836,palt,2021.1.2,58.452834771831355,
6,menta,triatlon,,,,,,,,,2,0,2,0,0,7,7,5,,,,,,,,,,,,,926.2244995577494,None,927.2343880429398,None,927.2343880429398,None,,,,,,,,,,,,,,,,,,,,,,,,,,,,,,,,,,,,,,,,,,,,,,,,,,,,,,,,,,,729477,2022_Apr_20_1836,palt,2021.1.2,58.452834771831355,
3,fogó,limonádé,,,,,,,,,2,0,2,0,0,8,8,2,,,,,,,,,,,,,933.2244323801715,None,934.2423579224851,None,934.2423579224851,None,,,,,,,,,,,,,,,,,,,,,,,,,,,,,,,,,,,,,,,,,,,,,,,,,,,,,,,,,,,729477,2022_Apr_20_1836,palt,2021.1.2,58.452834771831355,
2,kötény,tisztás,,,,,,,,,2,0,2,0,0,9,9,1,,,,,,,,,,,,,940.226918574539,None,941.2299689366482,None,941.2299689366482,None,,,,,,,,,,,,,,,,,,,,,,,,,,,,,,,,,,,,,,,,,,,,,,,,,,,,,,,,,,,729477,2022_Apr_20_1836,palt,2021.1.2,58.452834771831355,
8,szalvéta,puska,,,,,,,,,2,0,2,0,,,,,0,0,0,7,,,,,,,,,955.7352551319636,None,,,,,,,,,,,szalvéta,956.7238112980267,None,4,4.307667953427881,956.7238112980267,None,956.7238112980267,None,956.7238112980267,None, puska,961.0643882045988,None,961.0643882045988,None,down,4.745057157007977,961.0643882045988,None,965.8574559084373,None,4,1.5629731202498078,965.8574559084373,None,,,,,,,951.7020572527545,None,947.2247552060289,None,u,2.7128744064830244,947.2247552060289,None,949.9674499495886,None,4,1.7030235532438383,949.9674499495886,None,,,,,,,729477,2022_Apr_20_1836,palt,2021.1.2,58.452834771831355,
4,mocsár,ananász,,,,,,,,,2,0,2,0,,,,,0,1,1,3,,,,,,,,,967.4495878528105,None,,,,,,,,,,,mocsár,968.4783078453038,None,4,1.1414089140016586,968.4783078453038,None,968.4783078453038,None,968.4783078453038,None, ananász,969.6581246369751,None,969.6581246369751,None,down,3.639207602594979,969.6581246369751,None,973.3383426283253,None,4,0.8000520004425198,973.3383426283253,None,,,,,,,,,,,,,,,,,,,,,,,,,,,729477,2022_Apr_20_1836,palt,2021.1.2,58.452834771831355,
6,menta,triatlon,,,,,,,,,2,0,2,0,,,,,0,2,2,5,,,,,,,,,974.1671068459982,None,,,,,,,,,,,menta,975.1822594449623,None,4,1.4714112527435645,975.1822594449623,None,975.1822594449623,None,975.1822594449623,None, triatlon,976.6922636249801,None,976.6922636249801,None,down,3.613193686818704,976.6922636249801,None,980.3291588863358,None,4,0.9404476518975571,980.3291588863358,None,,,,,,,,,,,,,,,,,,,,,,,,,,,729477,2022_Apr_20_1836,palt,2021.1.2,58.452834771831355,
10,málna,dominó,,,,,,,,,2,0,2,0,,,,,0,3,3,9,,,,,,,,,981.3035010742024,None,,,,,,,,,,,málna,982.3229881854495,None,4,1.2305956167401746,982.3229881854495,None,982.3229881854495,None,982.3229881854495,None, dominó,983.5882082730532,None,983.5882082730532,None,down,3.1491352745797485,983.5882082730532,None,986.7719767267117,None,4,0.9002856914885342,986.7719767267117,None,,,,,,,,,,,,,,,,,,,,,,,,,,,729477,2022_Apr_20_1836,palt,2021.1.2,58.452834771831355,
3,fogó,limonádé,,,,,,,,,2,0,2,0,,,,,0,4,4,2,,,,,,,,,987.7164603235433,None,,,,,,,,,,,fogó,988.7376290526008,None,4,5.895881202537566,988.7376290526008,None,988.7376290526008,None,988.7376290526008,None, limonádé,994.6661172200693,None,994.6661172200693,None,down,4.215089402161539,994.6661172200693,None,998.9070199381094,None,4,1.0132056917063892,998.9070199381094,None,,,,,,,,,,,,,,,,,,,,,,,,,,,729477,2022_Apr_20_1836,palt,2021.1.2,58.452834771831355,
5,karton,hentes,,,,,,,,,2,0,2,0,,,,,0,5,5,4,,,,,,,,,999.9527809673455,None,,,,,,,,,,,karton,1000.9725573156029,None,4,2.3998232232406735,1000.9725573156029,None,1000.9725573156029,None,1000.9725573156029,None, hering,1003.411334856879,None,1003.411334856879,None,down,3.149843438761309,1003.411334856879,None,1006.6025942384731,None,4,7.012462694663554,1006.6025942384731,None,,,,,,,,,,,,,,,,,,,,,,,,,,,729477,2022_Apr_20_1836,palt,2021.1.2,58.452834771831355,
2,kötény,tisztás,,,,,,,,,2,0,2,0,,,,,0,6,6,1,,,,,,,,,1013.651077827788,None,,,,,,,,,,,tisztás,1014.6699849099386,None,None,,1014.6699849099386,None,1014.6699849099386,None,1014.6699849099386,None, ,1029.6761664960068,None,1029.6761664960068,None,down,1.7806249137502164,1029.6761664960068,None,1031.5040928594535,None,4,0.9577524231281132,1031.5040928594535,None,,,,,,,,,,,,,,,,,,,,,,,,,,,729477,2022_Apr_20_1836,palt,2021.1.2,58.452834771831355,
9,szilva,kecske,,,,,,,,,2,0,2,0,,,,,0,7,7,8,,,,,,,,,1032.4912731280783,None,,,,,,,,,,,kecske,1033.5085231619887,None,4,1.8663473033811897,1033.5085231619887,None,1033.5085231619887,None,1033.5085231619887,None, szilva,1035.4110711225076,None,1035.4110711225076,None,down,5.9183586513390765,1035.4110711225076,None,1041.380906188977,None,4,1.8827694351784885,1041.380906188977,None,,,,,,,,,,,,,,,,,,,,,,,,,,,729477,2022_Apr_20_1836,palt,2021.1.2,58.452834771831355,
1,bagoly,kirakó,,,,,,,,,2,0,2,0,,,,,0,8,8,0,,,,,,,,,1043.3043529238785,None,,,,,,,,,,,kirakó,1044.3261352708796,None,4,2.21163317526225,1044.3261352708796,None,1044.3261352708796,None,1044.3261352708796,None, bagoly,1046.5836952425307,None,1046.5836952425307,None,down,2.9372364988084882,1046.5836952425307,None,1049.5498184338212,None,4,1.8869926066836342,1049.5498184338212,None,,,,,,,,,,,,,,,,,,,,,,,,,,,729477,2022_Apr_20_1836,palt,2021.1.2,58.452834771831355,
7,csavarhúzó,hering,,,,,,,,,2,0,2,0,,,,,0,9,9,6,,,,,,,,,1051.4711621357128,None,,,,,,,,,,,hering,1052.4937792269047,None,4,2.0512344512389973,1052.4937792269047,None,1052.4937792269047,None,1052.4937792269047,None, csavarhúzó,1054.5853802814381,None,1054.5853802814381,None,down,3.7352806344861165,1054.5853802814381,None,1058.3619627188891,None,4,1.0219873009482399,1058.3619627188891,None,,,,,,,,,,,,,,,,,,,,,,,,,,,729477,2022_Apr_20_1836,palt,2021.1.2,58.452834771831355,
,,,,,,,,,,,2,0,2,0,,,,,,,,,,,,,,,,,,,,,,,,,,,,,,,,,,,,,,,,,,,,,,,,,,,,,,,,,,,,,,,,,,,,,,,,,,,4,17.519919411744922,1059.4415822074516,None,1059.4415822074516,None,729477,2022_Apr_20_1836,palt,2021.1.2,58.452834771831355,
3,fogó,limonádé,,,,,,,,,3,0,3,0,0,0,0,2,,,,,,,,,,,,,1081.0002516051754,None,1081.9929404396098,None,1081.9929404396098,None,,,,,,,,,,,,,,,,,,,,,,,,,,,,,,,,,,,,,,,1076.9862820788985,None,,,,,,,,,,,,,,,,,,,729477,2022_Apr_20_1836,palt,2021.1.2,58.452834771831355,
8,szalvéta,puska,,,,,,,,,3,0,3,0,0,1,1,7,,,,,,,,,,,,,1087.9935030522756,None,1089.0116836207453,None,1089.0116836207453,None,,,,,,,,,,,,,,,,,,,,,,,,,,,,,,,,,,,,,,,,,,,,,,,,,,,,,,,,,,,729477,2022_Apr_20_1836,palt,2021.1.2,58.452834771831355,
5,karton,hentes,,,,,,,,,3,0,3,0,0,2,2,4,,,,,,,,,,,,,1094.9898462254787,None,1096.0089591946453,None,1096.0089591946453,None,,,,,,,,,,,,,,,,,,,,,,,,,,,,,,,,,,,,,,,,,,,,,,,,,,,,,,,,,,,729477,2022_Apr_20_1836,palt,2021.1.2,58.452834771831355,
1,bagoly,kirakó,,,,,,,,,3,0,3,0,0,3,3,0,,,,,,,,,,,,,1101.9988925021607,None,1103.0075139425462,None,1103.0075139425462,None,,,,,,,,,,,,,,,,,,,,,,,,,,,,,,,,,,,,,,,,,,,,,,,,,,,,,,,,,,,729477,2022_Apr_20_1836,palt,2021.1.2,58.452834771831355,
4,mocsár,ananász,,,,,,,,,3,0,3,0,0,4,4,3,,,,,,,,,,,,,1108.9914631537395,None,1110.0015649900306,None,1110.0015649900306,None,,,,,,,,,,,,,,,,,,,,,,,,,,,,,,,,,,,,,,,,,,,,,,,,,,,,,,,,,,,729477,2022_Apr_20_1836,palt,2021.1.2,58.452834771831355,
2,kötény,tisztás,,,,,,,,,3,0,3,0,0,5,5,1,,,,,,,,,,,,,1115.993917003274,None,1117.0025910038967,None,1117.0025910038967,None,,,,,,,,,,,,,,,,,,,,,,,,,,,,,,,,,,,,,,,,,,,,,,,,,,,,,,,,,,,729477,2022_Apr_20_1836,palt,2021.1.2,58.452834771831355,
10,málna,dominó,,,,,,,,,3,0,3,0,0,6,6,9,,,,,,,,,,,,,1122.9902850571088,None,1124.0018663563533,None,1124.0018663563533,None,,,,,,,,,,,,,,,,,,,,,,,,,,,,,,,,,,,,,,,,,,,,,,,,,,,,,,,,,,,729477,2022_Apr_20_1836,palt,2021.1.2,58.452834771831355,
6,menta,triatlon,,,,,,,,,3,0,3,0,0,7,7,5,,,,,,,,,,,,,1129.9993490611669,None,1131.0065190293826,None,1131.0065190293826,None,,,,,,,,,,,,,,,,,,,,,,,,,,,,,,,,,,,,,,,,,,,,,,,,,,,,,,,,,,,729477,2022_Apr_20_1836,palt,2021.1.2,58.452834771831355,
9,szilva,kecske,,,,,,,,,3,0,3,0,0,8,8,8,,,,,,,,,,,,,1136.9877323071705,None,1138.0056320357835,None,1138.0056320357835,None,,,,,,,,,,,,,,,,,,,,,,,,,,,,,,,,,,,,,,,,,,,,,,,,,,,,,,,,,,,729477,2022_Apr_20_1836,palt,2021.1.2,58.452834771831355,
7,csavarhúzó,hering,,,,,,,,,3,0,3,0,0,9,9,6,,,,,,,,,,,,,1143.9916009301087,None,1145.006395248347,None,1145.006395248347,None,,,,,,,,,,,,,,,,,,,,,,,,,,,,,,,,,,,,,,,,,,,,,,,,,,,,,,,,,,,729477,2022_Apr_20_1836,palt,2021.1.2,58.452834771831355,
3,fogó,limonádé,,,,,,,,,3,0,3,0,,,,,0,0,0,2,,,,,,,,,1159.1212599787395,None,,,,,,,,,,,fogó,1160.1198128605029,None,4,1.2260073223151267,1160.1198128605029,None,1160.1198128605029,None,1160.1198128605029,None, limonádé,1161.3900606962852,None,1161.3900606962852,None,down,4.641628485289402,1161.3900606962852,None,1166.0687130755978,None,4,2.5653324235463515,1166.0687130755978,None,,,,,,,1155.0981219498208,None,1150.9862528442172,None,u,2.6616368452087045,1150.9862528442172,None,1153.6913769424427,None,4,1.3865879859076813,1153.6913769424427,None,,,,,,,729477,2022_Apr_20_1836,palt,2021.1.2,58.452834771831355,
2,kötény,tisztás,,,,,,,,,3,0,3,0,,,,,0,1,1,1,,,,,,,,,1168.6655415450223,None,,,,,,,,,,,tisztás,1169.6895460409578,None,None,,1169.6895460409578,None,1169.6895460409578,None,1169.6895460409578,None, ,1184.6748456469504,None,1184.6748456469504,None,down,2.220659547485411,1184.6748456469504,None,1186.9406989460113,None,4,5.945129870553501,1186.9406989460113,None,,,,,,,,,,,,,,,,,,,,,,,,,,,729477,2022_Apr_20_1836,palt,2021.1.2,58.452834771831355,
8,szalvéta,puska,,,,,,,,,3,0,3,0,,,,,0,2,2,7,,,,,,,,,1192.9199895750498,None,,,,,,,,,,,szalvéta,1193.9388465849916,None,4,2.316025037318468,1193.9388465849916,None,1193.9388465849916,None,1193.9388465849916,None, puska,1196.2954633950721,None,1196.2954633950721,None,down,3.0000018660211936,1196.2954633950721,None,1199.3422358208336,None,4,1.4292778155067936,1199.3422358208336,None,,,,,,,,,,,,,,,,,,,,,,,,,,,729477,2022_Apr_20_1836,palt,2021.1.2,58.452834771831355,
4,mocsár,ananász,,,,,,,,,3,0,3,0,,,,,0,3,3,3,,,,,,,,,1200.7981349499896,None,,,,,,,,,,,mocsár,1201.8278632288566,None,4,0.9955158930970356,1201.8278632288566,None,1201.8278632288566,None,1201.8278632288566,None, ananász,1202.8726215697825,None,1202.8726215697825,None,down,3.2067372943274677,1202.8726215697825,None,1206.1165021851193,None,4,0.8992413282394409,1206.1165021851193,None,,,,,,,,,,,,,,,,,,,,,,,,,,,729477,2022_Apr_20_1836,palt,2021.1.2,58.452834771831355,
7,csavarhúzó,hering,,,,,,,,,3,0,3,0,,,,,0,4,4,6,,,,,,,,,1207.044959873776,None,,,,,,,,,,,hering,1208.0626785961213,None,4,1.555837673950009,1208.0626785961213,None,1208.0626785961213,None,1208.0626785961213,None, csavarhúzó,1209.649587168591,None,1209.649587168591,None,down,5.54977209365461,1209.649587168591,None,1215.2212912038667,None,4,1.2359919088194147,1215.2212912038667,None,,,,,,,,,,,,,,,,,,,,,,,,,,,729477,2022_Apr_20_1836,palt,2021.1.2,58.452834771831355,
6,menta,triatlon,,,,,,,,,3,0,3,0,,,,,0,5,5,5,,,,,,,,,1216.4773101330502,None,,,,,,,,,,,menta,1217.4929447936593,None,4,1.612294252961874,1217.4929447936593,None,1217.4929447936593,None,1217.4929447936593,None, triatlon,1219.1301961586578,None,1219.1301961586578,None,down,4.277173040783964,1219.1301961586578,None,1223.4319515475072,None,4,1.18840619828552,1223.4319515475072,None,,,,,,,,,,,,,,,,,,,,,,,,,,,729477,2022_Apr_20_1836,palt,2021.1.2,58.452834771831355,
5,karton,hentes,,,,,,,,,3,0,3,0,,,,,0,6,6,4,,,,,,,,,1224.654221492121,None,,,,,,,,,,,karton,1225.6768494686112,None,4,4.484511823859066,1225.6768494686112,None,1225.6768494686112,None,1225.6768494686112,None, hentes,1230.1962351914262,None,1230.1962351914262,None,down,3.6430134020047262,1230.1962351914262,None,1233.871320625185,None,4,1.234903693315573,1233.871320625185,None,,,,,,,,,,,,,,,,,,,,,,,,,,,729477,2022_Apr_20_1836,palt,2021.1.2,58.452834771831355,
9,szilva,kecske,,,,,,,,,3,0,3,0,,,,,0,7,7,8,,,,,,,,,1235.1408808231354,None,,,,,,,,,,,kecske,1236.1688637277111,None,4,1.0066577387042344,1236.1688637277111,None,1236.1688637277111,None,1236.1688637277111,None, szilva,1237.2221946808277,None,1237.2221946808277,None,down,3.0808756480691954,1237.2221946808277,None,1240.3478653685888,None,4,0.6393344935495406,1240.3478653685888,None,,,,,,,,,,,,,,,,,,,,,,,,,,,729477,2022_Apr_20_1836,palt,2021.1.2,58.452834771831355,
1,bagoly,kirakó,,,,,,,,,3,0,3,0,,,,,0,8,8,0,,,,,,,,,1241.0154222425772,None,,,,,,,,,,,kirakó,1242.0331291465554,None,4,1.0100735346786678,1242.0331291465554,None,1242.0331291465554,None,1242.0331291465554,None, bagoly,1243.0917991662864,None,1243.0917991662864,None,down,2.9714358223136514,1243.0917991662864,None,1246.0873732178006,None,4,0.9857539880322292,1246.0873732178006,None,,,,,,,,,,,,,,,,,,,,,,,,,,,729477,2022_Apr_20_1836,palt,2021.1.2,58.452834771831355,
10,málna,dominó,,,,,,,,,3,0,3,0,,,,,0,9,9,9,,,,,,,,,1247.1041219074978,None,,,,,,,,,,,málna,1248.1301675459836,None,4,1.0178222877439111,1248.1301675459836,None,1248.1301675459836,None,1248.1301675459836,None, dominó,1249.18929630192,None,1249.18929630192,None,down,2.9058664111653343,1249.18929630192,None,1252.126158658648,None,4,0.8348696070024744,1252.126158658648,None,,,,,,,,,,,,,,,,,,,,,,,,,,,729477,2022_Apr_20_1836,palt,2021.1.2,58.452834771831355,
,,,,,,,,,,,3,0,3,0,,,,,,,,,,,,,,,,,,,,,,,,,,,,,,,,,,,,,,,,,,,,,,,,,,,,,,,,,,,,,,,,,,,,,,,,,,,4,7.489031074685045,1253.0140037371311,None,1253.0140037371311,None,729477,2022_Apr_20_1836,palt,2021.1.2,58.452834771831355,
