itemno,wordA,wordB,enc_gyak.thisRepN,enc_gyak.thisTrialN,enc_gyak.thisN,enc_gyak.thisIndex,rec_gyak.thisRepN,rec_gyak.thisTrialN,rec_gyak.thisN,rec_gyak.thisIndex,repeat_task.thisRepN,repeat_task.thisTrialN,repeat_task.thisN,repeat_task.thisIndex,enc_loop.thisRepN,enc_loop.thisTrialN,enc_loop.thisN,enc_loop.thisIndex,test_loop.thisRepN,test_loop.thisTrialN,test_loop.thisN,test_loop.thisIndex,int.started,int.stopped,int_key.keys,int_key.rt,int_key.started,int_key.stopped,prepare_gyak_text.started,prepare_gyak_text.stopped,fix.started,fix.stopped,word1.started,word1.stopped,word2.started,word2.stopped,gykrec_inst.started,gykrec_inst.stopped,gyakrec_inst.keys,gyakrec_inst.rt,gyakrec_inst.started,gyakrec_inst.stopped,cueword,cueword1.started,cueword1.stopped,cue_resp.keys,cue_resp.rt,cue_resp.started,cue_resp.stopped,cue_cont_text.started,cue_cont_text.stopped,cue_space.started,cue_space.stopped,test_ansbox.text,test_ansbox.started,test_ansbox.stopped,ans_text.started,ans_text.stopped,ans_continue.keys,ans_continue.rt,ans_continue.started,ans_continue.stopped,feedback_text.started,feedback_text.stopped,feedback_cont.keys,feedback_cont.rt,feedback_cont.started,feedback_cont.stopped,main_prep.started,main_prep.stopped,main_prep_resp.keys,main_prep_resp.rt,main_prep_resp.started,main_prep_resp.stopped,preparation.started,preparation.stopped,break_text.started,break_text.stopped,key_resp.keys,key_resp.rt,key_resp.started,key_resp.stopped,test_instruction.started,test_instruction.stopped,test_i_key.keys,test_i_key.rt,test_i_key.started,test_i_key.stopped,rep_routine.keys,rep_routine.rt,rep_routine.started,rep_routine.stopped,encrep_textbox.started,encrep_textbox.stopped,end_text.started,end_text.stopped,Résztvevő kódja,date,expName,psychopyVersion,frameRate,
,,,,,,,,,,,,,,,,,,,,,,,29.456853273441084,None,4,56.118355241720565,29.456853273441084,None,,,,,,,,,,,,,,,,,,,,,,,,,,,,,,,,,,,,,,,,,,,,,,,,,,,,,,,,,,,,,,,,,,,,,030718,2022_Apr_07_1131,palt,2021.1.2,48.50838429759559,
2,lepke,szintetizátor,0,0,0,1,,,,,,,,,,,,,,,,,,,,,,,85.62878861860372,None,88.7614256470697,None,89.66005516040605,None,89.66005516040605,None,,,,,,,,,,,,,,,,,,,,,,,,,,,,,,,,,,,,,,,,,,,,,,,,,,,,,,,,,,,,,030718,2022_Apr_07_1131,palt,2021.1.2,48.50838429759559,
1,sapka,beton,0,1,1,0,,,,,,,,,,,,,,,,,,,,,,,,,95.65043382474687,None,96.64961463026702,None,96.64961463026702,None,,,,,,,,,,,,,,,,,,,,,,,,,,,,,,,,,,,,,,,,,,,,,,,,,,,,,,,,,,,,,030718,2022_Apr_07_1131,palt,2021.1.2,48.50838429759559,
4,kard,harcsa,0,2,2,3,,,,,,,,,,,,,,,,,,,,,,,,,102.64368402364198,None,103.66950077656657,None,103.66950077656657,None,,,,,,,,,,,,,,,,,,,,,,,,,,,,,,,,,,,,,,,,,,,,,,,,,,,,,,,,,,,,,030718,2022_Apr_07_1131,palt,2021.1.2,48.50838429759559,
3,majoránna,szikla,0,3,3,2,,,,,,,,,,,,,,,,,,,,,,,,,109.630900983233,None,110.65574086084962,None,110.65574086084962,None,,,,,,,,,,,,,,,,,,,,,,,,,,,,,,,,,,,,,,,,,,,,,,,,,,,,,,,,,,,,,030718,2022_Apr_07_1131,palt,2021.1.2,48.50838429759559,
,,,,,,,,,,,,,,,,,,,,,,,,,,,,,,,,,,,,,116.6515354141593,None,4,6.157387646846473,116.6515354141593,None,,,,,,,,,,,,,,,,,,,,,,,,,,,,,,,,,,,,,,,,,,,,,,,,,,,,,,,030718,2022_Apr_07_1131,palt,2021.1.2,48.50838429759559,
4,kard,harcsa,,,,,0,0,0,3,,,,,,,,,,,,,,,,,,,,,122.8776685242774,None,,,,,,,,,,,harcsa,123.89852066058666,None,4,7.853832268505357,123.89852066058666,None,123.89852066058666,None,123.89852066058666,None, kalapács,131.86543068045285,None,131.86543068045285,None,down,5.156276105204597,131.86543068045285,None,137.1446605878882,None,4,4.071350775077008,137.1446605878882,None,,,,,,,,,,,,,,,,,,,,,,,,,,,,,030718,2022_Apr_07_1131,palt,2021.1.2,48.50838429759559,
3,majoránna,szikla,,,,,0,1,1,2,,,,,,,,,,,,,,,,,,,,,141.2745056998683,None,,,,,,,,,,,szikla,142.30283228540793,None,None,,142.30283228540793,None,142.30283228540793,None,142.30283228540793,None, ,157.2875580729451,None,157.2875580729451,None,down,1.606076966971159,157.2875580729451,None,158.9503252208233,None,4,2.109523243852891,158.9503252208233,None,,,,,,,,,,,,,,,,,,,,,,,,,,,,,030718,2022_Apr_07_1131,palt,2021.1.2,48.50838429759559,
1,sapka,beton,,,,,0,2,2,0,,,,,,,,,,,,,,,,,,,,,161.09671656682622,None,,,,,,,,,,,sapka,162.12734958576038,None,4,5.019346858840436,162.12734958576038,None,162.12734958576038,None,162.12734958576038,None,beton,167.21180280612316,None,167.21180280612316,None,down,2.2257415513740852,167.21180280612316,None,169.50882049067877,None,4,4.178505383781157,169.50882049067877,None,,,,,,,,,,,,,,,,,,,,,,,,,,,,,030718,2022_Apr_07_1131,palt,2021.1.2,48.50838429759559,
2,lepke,szintetizátor,,,,,0,3,3,1,,,,,,,,,,,,,,,,,,,,,173.71750171214808,None,,,,,,,,,,,lepke,174.74525728740264,None,4,6.470460173324682,174.74525728740264,None,174.74525728740264,None,174.74525728740264,None,szikla,181.27524807536975,None,181.27524807536975,None,down,3.0743053486803547,181.27524807536975,None,184.4110116646625,None,4,2.254539002547972,184.4110116646625,None,,,,,,,,,,,,,,,,,,,,,,,,,,,,,030718,2022_Apr_07_1131,palt,2021.1.2,48.50838429759559,
,,,,,,,,,,,,,,,,,,,,,,,,,,,,,,,,,,,,,,,,,,,,,,,,,,,,,,,,,,,,,,,,,,,,,186.7027179589495,None,4,101.56106699293014,186.7027179589495,None,,,,,,,,,,,,,,,,,,,,,,,030718,2022_Apr_07_1131,palt,2021.1.2,48.50838429759559,
10,málna,dominó,,,,,,,,,0,0,0,0,0,0,0,9,,,,,,,,,,,,,292.3760690113995,None,293.35016984131653,None,293.35016984131653,None,,,,,,,,,,,,,,,,,,,,,,,,,,,,,,,,,,,,,,,288.3140024396125,None,,,,,,,,,,,,,,,,,,,,,030718,2022_Apr_07_1131,palt,2021.1.2,48.50838429759559,
4,mocsár,ananász,,,,,,,,,0,0,0,0,0,1,1,3,,,,,,,,,,,,,299.333785953233,None,300.3320477310335,None,300.3320477310335,None,,,,,,,,,,,,,,,,,,,,,,,,,,,,,,,,,,,,,,,,,,,,,,,,,,,,,,,,,,,,,030718,2022_Apr_07_1131,palt,2021.1.2,48.50838429759559,
5,karton,hentes,,,,,,,,,0,0,0,0,0,2,2,4,,,,,,,,,,,,,306.32425169984344,None,307.35256211296655,None,307.35256211296655,None,,,,,,,,,,,,,,,,,,,,,,,,,,,,,,,,,,,,,,,,,,,,,,,,,,,,,,,,,,,,,030718,2022_Apr_07_1131,palt,2021.1.2,48.50838429759559,
7,csavarhúzó,hering,,,,,,,,,0,0,0,0,0,3,3,6,,,,,,,,,,,,,313.33975979010575,None,314.33214010030497,None,314.33214010030497,None,,,,,,,,,,,,,,,,,,,,,,,,,,,,,,,,,,,,,,,,,,,,,,,,,,,,,,,,,,,,,030718,2022_Apr_07_1131,palt,2021.1.2,48.50838429759559,
2,kötény,tisztás,,,,,,,,,0,0,0,0,0,4,4,1,,,,,,,,,,,,,320.34010687470436,None,321.3391937559936,None,321.3391937559936,None,,,,,,,,,,,,,,,,,,,,,,,,,,,,,,,,,,,,,,,,,,,,,,,,,,,,,,,,,,,,,030718,2022_Apr_07_1131,palt,2021.1.2,48.50838429759559,
6,menta,triatlon,,,,,,,,,0,0,0,0,0,5,5,5,,,,,,,,,,,,,327.34007639600895,None,328.3341554304352,None,328.3341554304352,None,,,,,,,,,,,,,,,,,,,,,,,,,,,,,,,,,,,,,,,,,,,,,,,,,,,,,,,,,,,,,030718,2022_Apr_07_1131,palt,2021.1.2,48.50838429759559,
3,fogó,limonádé,,,,,,,,,0,0,0,0,0,6,6,2,,,,,,,,,,,,,334.31265702005476,None,335.3312307136366,None,335.3312307136366,None,,,,,,,,,,,,,,,,,,,,,,,,,,,,,,,,,,,,,,,,,,,,,,,,,,,,,,,,,,,,,030718,2022_Apr_07_1131,palt,2021.1.2,48.50838429759559,
9,szilva,kecske,,,,,,,,,0,0,0,0,0,7,7,8,,,,,,,,,,,,,341.33620870357845,None,342.3346906747902,None,342.3346906747902,None,,,,,,,,,,,,,,,,,,,,,,,,,,,,,,,,,,,,,,,,,,,,,,,,,,,,,,,,,,,,,030718,2022_Apr_07_1131,palt,2021.1.2,48.50838429759559,
1,bagoly,kirakó,,,,,,,,,0,0,0,0,0,8,8,0,,,,,,,,,,,,,348.32816324429587,None,349.3359714046819,None,349.3359714046819,None,,,,,,,,,,,,,,,,,,,,,,,,,,,,,,,,,,,,,,,,,,,,,,,,,,,,,,,,,,,,,030718,2022_Apr_07_1131,palt,2021.1.2,48.50838429759559,
8,szalvéta,puska,,,,,,,,,0,0,0,0,0,9,9,7,,,,,,,,,,,,,355.3191256701248,None,356.342337111244,None,356.342337111244,None,,,,,,,,,,,,,,,,,,,,,,,,,,,,,,,,,,,,,,,,,,,,,,,,,,,,,,,,,,,,,030718,2022_Apr_07_1131,palt,2021.1.2,48.50838429759559,
9,szilva,kecske,,,,,,,,,0,0,0,0,,,,,0,0,0,8,,,,,,,,,374.3452014926588,None,,,,,,,,,,,kecske,375.3200630474603,None,4,13.872122011962347,375.3200630474603,None,375.3200630474603,None,375.3200630474603,None,,389.2285415540682,None,389.2285415540682,None,down,2.0322356418473646,389.2285415540682,None,391.3093817974441,None,4,7.474373894743621,391.3093817974441,None,,,,,,,370.2958719319431,None,362.33338413131423,None,u,5.75894691538997,362.33338413131423,None,368.14961307530757,None,4,2.098804983892478,368.14961307530757,None,,,,,,,,,030718,2022_Apr_07_1131,palt,2021.1.2,48.50838429759559,
2,kötény,tisztás,,,,,,,,,0,0,0,0,,,,,0,1,1,1,,,,,,,,,398.84418387524784,None,,,,,,,,,,,kötény,399.8661758550443,None,4,7.72107083699666,399.8661758550443,None,399.8661758550443,None,399.8661758550443,None,tisztás,407.63771080889273,None,407.63771080889273,None,down,2.102115661255084,407.63771080889273,None,409.81929299235344,None,4,6.4284044618252665,409.81929299235344,None,,,,,,,,,,,,,,,,,,,,,,,,,,,,,030718,2022_Apr_07_1131,palt,2021.1.2,48.50838429759559,
8,szalvéta,puska,,,,,,,,,0,0,0,0,,,,,0,2,2,7,,,,,,,,,416.30175588757265,None,,,,,,,,,,,szalvéta,417.36380348785315,None,4,8.683728758944198,417.36380348785315,None,417.36380348785315,None,417.36380348785315,None, ,426.10873328417074,None,426.10873328417074,None,down,1.7115126359276474,426.10873328417074,None,427.88485031505115,None,4,1.9016997817670926,427.88485031505115,None,,,,,,,,,,,,,,,,,,,,,,,,,,,,,030718,2022_Apr_07_1131,palt,2021.1.2,48.50838429759559,
6,menta,triatlon,,,,,,,,,0,0,0,0,,,,,0,3,3,5,,,,,,,,,429.8433012352325,None,,,,,,,,,,,triatlon,430.8708450142294,None,4,5.537728971685283,430.8708450142294,None,430.8708450142294,None,430.8708450142294,None,málna,436.4518917668611,None,436.4518917668611,None,down,3.4316280571511015,436.4518917668611,None,439.91452356416266,None,4,4.121696709073149,439.91452356416266,None,,,,,,,,,,,,,,,,,,,,,,,,,,,,,030718,2022_Apr_07_1131,palt,2021.1.2,48.50838429759559,
7,csavarhúzó,hering,,,,,,,,,0,0,0,0,,,,,0,4,4,6,,,,,,,,,444.0679359100759,None,,,,,,,,,,,csavarhúzó,445.09302521590143,None,4,9.101430511218496,445.09302521590143,None,445.09302521590143,None,445.09302521590143,None,harcsa,454.2603585794568,None,454.2603585794568,None,down,4.679008905310184,454.2603585794568,None,458.99949616740923,None,4,4.620109947398305,458.99949616740923,None,,,,,,,,,,,,,,,,,,,,,,,,,,,,,030718,2022_Apr_07_1131,palt,2021.1.2,48.50838429759559,
4,mocsár,ananász,,,,,,,,,0,0,0,0,,,,,0,5,5,3,,,,,,,,,463.6659117472591,None,,,,,,,,,,,ananász,464.6812161273556,None,4,9.896586192306131,464.6812161273556,None,464.6812161273556,None,464.6812161273556,None,,474.6330693291966,None,474.6330693291966,None,down,2.4343534180661663,474.6330693291966,None,477.10962152224965,None,4,1.3561237736139446,477.10962152224965,None,,,,,,,,,,,,,,,,,,,,,,,,,,,,,030718,2022_Apr_07_1131,palt,2021.1.2,48.50838429759559,
1,bagoly,kirakó,,,,,,,,,0,0,0,0,,,,,0,6,6,0,,,,,,,,,478.49819615506567,None,,,,,,,,,,,bagoly,479.5173439689679,None,4,6.601782571990043,479.5173439689679,None,479.5173439689679,None,479.5173439689679,None,,486.16210159135517,None,486.16210159135517,None,down,1.6730229393579066,486.16210159135517,None,487.8856328105321,None,4,1.259019380202517,487.8856328105321,None,,,,,,,,,,,,,,,,,,,,,,,,,,,,,030718,2022_Apr_07_1131,palt,2021.1.2,48.50838429759559,
3,fogó,limonádé,,,,,,,,,0,0,0,0,,,,,0,7,7,2,,,,,,,,,489.17895167996176,None,,,,,,,,,,,limonádé,490.1994701049989,None,4,5.040838738088496,490.1994701049989,None,490.1994701049989,None,490.1994701049989,None,fogó ,495.2811898783548,None,495.2811898783548,None,down,1.898139365017414,495.2811898783548,None,497.2376173820812,None,4,2.1618714454816654,497.2376173820812,None,,,,,,,,,,,,,,,,,,,,,,,,,,,,,030718,2022_Apr_07_1131,palt,2021.1.2,48.50838429759559,
5,karton,hentes,,,,,,,,,0,0,0,0,,,,,0,8,8,4,,,,,,,,,499.44610453466885,None,,,,,,,,,,,hentes,500.4688301817514,None,4,3.9267862886190414,500.4688301817514,None,500.4688301817514,None,500.4688301817514,None,,504.44864920002874,None,504.44864920002874,None,down,2.0425480366684496,504.44864920002874,None,506.54171857901383,None,4,1.4042690166970715,506.54171857901383,None,,,,,,,,,,,,,,,,,,,,,,,,,,,,,030718,2022_Apr_07_1131,palt,2021.1.2,48.50838429759559,
10,málna,dominó,,,,,,,,,0,0,0,0,,,,,0,9,9,9,,,,,,,,,507.99920071009547,None,,,,,,,,,,,málna,509.042378848535,None,4,14.461483245715499,509.042378848535,None,509.042378848535,None,509.042378848535,None,,523.5653784932801,None,523.5653784932801,None,down,1.8693064588587731,523.5653784932801,None,525.4921259059338,None,4,1.883211615262553,525.4921259059338,None,,,,,,,,,,,,,,,,,,,,,,,,,,,,,030718,2022_Apr_07_1131,palt,2021.1.2,48.50838429759559,
,,,,,,,,,,,0,0,0,0,,,,,,,,,,,,,,,,,,,,,,,,,,,,,,,,,,,,,,,,,,,,,,,,,,,,,,,,,,,,,,,,,,,,,,,,,,,4,5.523265245486982,527.4933777120896,None,527.4933777120896,None,,,030718,2022_Apr_07_1131,palt,2021.1.2,48.50838429759559,
7,csavarhúzó,hering,,,,,,,,,1,0,1,0,0,0,0,6,,,,,,,,,,,,,537.1021218814421,None,538.1058539744699,None,538.1058539744699,None,,,,,,,,,,,,,,,,,,,,,,,,,,,,,,,,,,,,,,,533.069667601143,None,,,,,,,,,,,,,,,,,,,,,030718,2022_Apr_07_1131,palt,2021.1.2,48.50838429759559,
10,málna,dominó,,,,,,,,,1,0,1,0,0,1,1,9,,,,,,,,,,,,,544.0929854068672,None,545.0874510240974,None,545.0874510240974,None,,,,,,,,,,,,,,,,,,,,,,,,,,,,,,,,,,,,,,,,,,,,,,,,,,,,,,,,,,,,,030718,2022_Apr_07_1131,palt,2021.1.2,48.50838429759559,
9,szilva,kecske,,,,,,,,,1,0,1,0,0,2,2,8,,,,,,,,,,,,,551.0776611221954,None,552.0927555721719,None,552.0927555721719,None,,,,,,,,,,,,,,,,,,,,,,,,,,,,,,,,,,,,,,,,,,,,,,,,,,,,,,,,,,,,,030718,2022_Apr_07_1131,palt,2021.1.2,48.50838429759559,
8,szalvéta,puska,,,,,,,,,1,0,1,0,0,3,3,7,,,,,,,,,,,,,558.0901704757707,None,559.1011848151684,None,559.1011848151684,None,,,,,,,,,,,,,,,,,,,,,,,,,,,,,,,,,,,,,,,,,,,,,,,,,,,,,,,,,,,,,030718,2022_Apr_07_1131,palt,2021.1.2,48.50838429759559,
6,menta,triatlon,,,,,,,,,1,0,1,0,0,4,4,5,,,,,,,,,,,,,565.0890688863583,None,566.1074426019331,None,566.1074426019331,None,,,,,,,,,,,,,,,,,,,,,,,,,,,,,,,,,,,,,,,,,,,,,,,,,,,,,,,,,,,,,030718,2022_Apr_07_1131,palt,2021.1.2,48.50838429759559,
2,kötény,tisztás,,,,,,,,,1,0,1,0,0,5,5,1,,,,,,,,,,,,,572.091782739968,None,573.0863833344774,None,573.0863833344774,None,,,,,,,,,,,,,,,,,,,,,,,,,,,,,,,,,,,,,,,,,,,,,,,,,,,,,,,,,,,,,030718,2022_Apr_07_1131,palt,2021.1.2,48.50838429759559,
5,karton,hentes,,,,,,,,,1,0,1,0,0,6,6,4,,,,,,,,,,,,,579.0893923344556,None,580.1069661381189,None,580.1069661381189,None,,,,,,,,,,,,,,,,,,,,,,,,,,,,,,,,,,,,,,,,,,,,,,,,,,,,,,,,,,,,,030718,2022_Apr_07_1131,palt,2021.1.2,48.50838429759559,
4,mocsár,ananász,,,,,,,,,1,0,1,0,0,7,7,3,,,,,,,,,,,,,586.0859078036156,None,587.102826314047,None,587.102826314047,None,,,,,,,,,,,,,,,,,,,,,,,,,,,,,,,,,,,,,,,,,,,,,,,,,,,,,,,,,,,,,030718,2022_Apr_07_1131,palt,2021.1.2,48.50838429759559,
3,fogó,limonádé,,,,,,,,,1,0,1,0,0,8,8,2,,,,,,,,,,,,,593.075305860606,None,594.099731164868,None,594.099731164868,None,,,,,,,,,,,,,,,,,,,,,,,,,,,,,,,,,,,,,,,,,,,,,,,,,,,,,,,,,,,,,030718,2022_Apr_07_1131,palt,2021.1.2,48.50838429759559,
1,bagoly,kirakó,,,,,,,,,1,0,1,0,0,9,9,0,,,,,,,,,,,,,600.082706289948,None,601.1066482882015,None,601.1066482882015,None,,,,,,,,,,,,,,,,,,,,,,,,,,,,,,,,,,,,,,,,,,,,,,,,,,,,,,,,,,,,,030718,2022_Apr_07_1131,palt,2021.1.2,48.50838429759559,
6,menta,triatlon,,,,,,,,,1,0,1,0,,,,,0,0,0,5,,,,,,,,,616.4365976499394,None,,,,,,,,,,,triatlon,617.432669000118,None,4,6.104568268405274,617.432669000118,None,617.432669000118,None,617.432669000118,None,mocsár ,623.5843306833412,None,623.5843306833412,None,down,2.8898506977129728,623.5843306833412,None,626.5156691923039,None,4,3.9373185659060255,626.5156691923039,None,,,,,,,612.3988994680112,None,607.0824848524062,None,u,3.215639708796516,607.0824848524062,None,610.3566453335807,None,4,1.9996746858814731,610.3566453335807,None,,,,,,,,,030718,2022_Apr_07_1131,palt,2021.1.2,48.50838429759559,
4,mocsár,ananász,,,,,,,,,1,0,1,0,,,,,0,1,1,3,,,,,,,,,630.5056251970818,None,,,,,,,,,,,ananász,631.5411852007965,None,4,7.727767455740832,631.5411852007965,None,631.5411852007965,None,631.5411852007965,None,,639.3348116568523,None,639.3348116568523,None,down,2.066982049262151,639.3348116568523,None,641.4589280061191,None,4,1.0130676124244928,641.4589280061191,None,,,,,,,,,,,,,,,,,,,,,,,,,,,,,030718,2022_Apr_07_1131,palt,2021.1.2,48.50838429759559,
8,szalvéta,puska,,,,,,,,,1,0,1,0,,,,,0,2,2,7,,,,,,,,,642.5251272488385,None,,,,,,,,,,,szalvéta,643.5612007263117,None,4,11.303117790375836,643.5612007263117,None,643.5612007263117,None,643.5612007263117,None,puska ,654.9146768909413,None,654.9146768909413,None,down,2.3434374566422775,654.9146768909413,None,657.3117224418093,None,4,2.2527037458494306,657.3117224418093,None,,,,,,,,,,,,,,,,,,,,,,,,,,,,,030718,2022_Apr_07_1131,palt,2021.1.2,48.50838429759559,
7,csavarhúzó,hering,,,,,,,,,1,0,1,0,,,,,0,3,3,6,,,,,,,,,659.5960115123307,None,,,,,,,,,,,csavarhúzó,660.6194574532565,None,4,13.752584007801488,660.6194574532565,None,660.6194574532565,None,660.6194574532565,None,,674.4113214283716,None,674.4113214283716,None,down,1.6944924260023981,674.4113214283716,None,676.2987322702538,None,4,1.8251215885393322,676.2987322702538,None,,,,,,,,,,,,,,,,,,,,,,,,,,,,,030718,2022_Apr_07_1131,palt,2021.1.2,48.50838429759559,
9,szilva,kecske,,,,,,,,,1,0,1,0,,,,,0,4,4,8,,,,,,,,,678.1661714386428,None,,,,,,,,,,,kecske,679.1882564097177,None,4,9.736468830495141,679.1882564097177,None,679.1882564097177,None,679.1882564097177,None, ,688.9702981382143,None,688.9702981382143,None,down,1.8725085946498439,688.9702981382143,None,690.8767998795956,None,4,1.1575795386452228,690.8767998795956,None,,,,,,,,,,,,,,,,,,,,,,,,,,,,,030718,2022_Apr_07_1131,palt,2021.1.2,48.50838429759559,
10,málna,dominó,,,,,,,,,1,0,1,0,,,,,0,5,5,9,,,,,,,,,692.0979571767384,None,,,,,,,,,,,málna,693.1177133218152,None,4,4.2333354274742305,693.1177133218152,None,693.1177133218152,None,693.1177133218152,None,dominó,697.4009586502798,None,697.4009586502798,None,down,2.4643454500474036,697.4009586502798,None,699.9388742266456,None,4,2.0537468035472557,699.9388742266456,None,,,,,,,,,,,,,,,,,,,,,,,,,,,,,030718,2022_Apr_07_1131,palt,2021.1.2,48.50838429759559,
2,kötény,tisztás,,,,,,,,,1,0,1,0,,,,,0,6,6,1,,,,,,,,,702.0323861696525,None,,,,,,,,,,,kötény,703.0694981019478,None,4,3.820811021141708,703.0694981019478,None,703.0694981019478,None,703.0694981019478,None,tisztás,706.939590477501,None,706.939590477501,None,down,2.3178408971289173,706.939590477501,None,709.3150343633024,None,4,1.317196489078924,709.3150343633024,None,,,,,,,,,,,,,,,,,,,,,,,,,,,,,030718,2022_Apr_07_1131,palt,2021.1.2,48.50838429759559,
5,karton,hentes,,,,,,,,,1,0,1,0,,,,,0,7,7,4,,,,,,,,,710.6907059067162,None,,,,,,,,,,,hentes,711.7226224546321,None,4,4.744305292610079,711.7226224546321,None,711.7226224546321,None,711.7226224546321,None,kirakó,716.5184570656857,None,716.5184570656857,None,down,2.7555867875926197,716.5184570656857,None,719.3212977482472,None,4,2.4051846235524863,719.3212977482472,None,,,,,,,,,,,,,,,,,,,,,,,,,,,,,030718,2022_Apr_07_1131,palt,2021.1.2,48.50838429759559,
3,fogó,limonádé,,,,,,,,,1,0,1,0,,,,,0,8,8,2,,,,,,,,,721.7695236668224,None,,,,,,,,,,,limonádé,722.7925780490041,None,4,12.075893354136497,722.7925780490041,None,722.7925780490041,None,722.7925780490041,None,,734.9151303402614,None,734.9151303402614,None,down,2.262351517099887,734.9151303402614,None,737.2326204206329,None,4,1.0942107774317265,737.2326204206329,None,,,,,,,,,,,,,,,,,,,,,,,,,,,,,030718,2022_Apr_07_1131,palt,2021.1.2,48.50838429759559,
1,bagoly,kirakó,,,,,,,,,1,0,1,0,,,,,0,9,9,0,,,,,,,,,738.375576064107,None,,,,,,,,,,,bagoly,739.4028834772762,None,4,11.82084834203124,739.4028834772762,None,739.4028834772762,None,739.4028834772762,None, ,751.2738252149429,None,751.2738252149429,None,down,1.791320022661239,751.2738252149429,None,753.1269592710305,None,4,0.9691586059052497,753.1269592710305,None,,,,,,,,,,,,,,,,,,,,,,,,,,,,,030718,2022_Apr_07_1131,palt,2021.1.2,48.50838429759559,
,,,,,,,,,,,1,0,1,0,,,,,,,,,,,,,,,,,,,,,,,,,,,,,,,,,,,,,,,,,,,,,,,,,,,,,,,,,,,,,,,,,,,,,,,,,,,4,11.778094729175791,754.1859282057267,None,754.1859282057267,None,,,030718,2022_Apr_07_1131,palt,2021.1.2,48.50838429759559,
10,málna,dominó,,,,,,,,,2,0,2,0,0,0,0,9,,,,,,,,,,,,,770.0566637453157,None,771.0428578003775,None,771.0428578003775,None,,,,,,,,,,,,,,,,,,,,,,,,,,,,,,,,,,,,,,,766.0176139237592,None,,,,,,,,,,,,,,,,,,,,,030718,2022_Apr_07_1131,palt,2021.1.2,48.50838429759559,
8,szalvéta,puska,,,,,,,,,2,0,2,0,0,1,1,7,,,,,,,,,,,,,777.0362417326542,None,778.0580328013748,None,778.0580328013748,None,,,,,,,,,,,,,,,,,,,,,,,,,,,,,,,,,,,,,,,,,,,,,,,,,,,,,,,,,,,,,030718,2022_Apr_07_1131,palt,2021.1.2,48.50838429759559,
3,fogó,limonádé,,,,,,,,,2,0,2,0,0,2,2,2,,,,,,,,,,,,,784.0357767760288,None,785.0625878208084,None,785.0625878208084,None,,,,,,,,,,,,,,,,,,,,,,,,,,,,,,,,,,,,,,,,,,,,,,,,,,,,,,,,,,,,,030718,2022_Apr_07_1131,palt,2021.1.2,48.50838429759559,
1,bagoly,kirakó,,,,,,,,,2,0,2,0,0,3,3,0,,,,,,,,,,,,,791.0266263061203,None,792.0455626348266,None,792.0455626348266,None,,,,,,,,,,,,,,,,,,,,,,,,,,,,,,,,,,,,,,,,,,,,,,,,,,,,,,,,,,,,,030718,2022_Apr_07_1131,palt,2021.1.2,48.50838429759559,
7,csavarhúzó,hering,,,,,,,,,2,0,2,0,0,4,4,6,,,,,,,,,,,,,798.037166669732,None,799.0610511315754,None,799.0610511315754,None,,,,,,,,,,,,,,,,,,,,,,,,,,,,,,,,,,,,,,,,,,,,,,,,,,,,,,,,,,,,,030718,2022_Apr_07_1131,palt,2021.1.2,48.50838429759559,
6,menta,triatlon,,,,,,,,,2,0,2,0,0,5,5,5,,,,,,,,,,,,,805.0362112538423,None,806.0516904203687,None,806.0516904203687,None,,,,,,,,,,,,,,,,,,,,,,,,,,,,,,,,,,,,,,,,,,,,,,,,,,,,,,,,,,,,,030718,2022_Apr_07_1131,palt,2021.1.2,48.50838429759559,
5,karton,hentes,,,,,,,,,2,0,2,0,0,6,6,4,,,,,,,,,,,,,812.0266490097856,None,813.0411108699627,None,813.0411108699627,None,,,,,,,,,,,,,,,,,,,,,,,,,,,,,,,,,,,,,,,,,,,,,,,,,,,,,,,,,,,,,030718,2022_Apr_07_1131,palt,2021.1.2,48.50838429759559,
2,kötény,tisztás,,,,,,,,,2,0,2,0,0,7,7,1,,,,,,,,,,,,,819.0438415178796,None,820.0613910630345,None,820.0613910630345,None,,,,,,,,,,,,,,,,,,,,,,,,,,,,,,,,,,,,,,,,,,,,,,,,,,,,,,,,,,,,,030718,2022_Apr_07_1131,palt,2021.1.2,48.50838429759559,
4,mocsár,ananász,,,,,,,,,2,0,2,0,0,8,8,3,,,,,,,,,,,,,826.0329487826675,None,827.0501804777887,None,827.0501804777887,None,,,,,,,,,,,,,,,,,,,,,,,,,,,,,,,,,,,,,,,,,,,,,,,,,,,,,,,,,,,,,030718,2022_Apr_07_1131,palt,2021.1.2,48.50838429759559,
9,szilva,kecske,,,,,,,,,2,0,2,0,0,9,9,8,,,,,,,,,,,,,833.0466203721007,None,834.0425558119314,None,834.0425558119314,None,,,,,,,,,,,,,,,,,,,,,,,,,,,,,,,,,,,,,,,,,,,,,,,,,,,,,,,,,,,,,030718,2022_Apr_07_1131,palt,2021.1.2,48.50838429759559,
6,menta,triatlon,,,,,,,,,2,0,2,0,,,,,0,0,0,5,,,,,,,,,851.94589087239,None,,,,,,,,,,,triatlon,852.9358571404591,None,4,3.5916710881283507,852.9358571404591,None,852.9358571404591,None,852.9358571404591,None,mocsár,856.5732236637268,None,856.5732236637268,None,down,3.1472568806493655,856.5732236637268,None,859.76540716819,None,4,2.2574152022134513,859.76540716819,None,,,,,,,847.9080822827527,None,840.0306787370937,None,u,3.4498108139960095,840.0306787370937,None,843.5317075507483,None,4,4.321685885894112,843.5317075507483,None,,,,,,,,,030718,2022_Apr_07_1131,palt,2021.1.2,48.50838429759559,
8,szalvéta,puska,,,,,,,,,2,0,2,0,,,,,0,1,1,7,,,,,,,,,862.068878885475,None,,,,,,,,,,,szalvéta,863.1005133494036,None,4,4.033957069623284,863.1005133494036,None,863.1005133494036,None,863.1005133494036,None,puska,867.1772423813818,None,867.1772423813818,None,down,1.9187890354078263,867.1772423813818,None,869.1673442488536,None,4,2.0693279806291685,869.1673442488536,None,,,,,,,,,,,,,,,,,,,,,,,,,,,,,030718,2022_Apr_07_1131,palt,2021.1.2,48.50838429759559,
10,málna,dominó,,,,,,,,,2,0,2,0,,,,,0,2,2,9,,,,,,,,,871.285291137523,None,,,,,,,,,,,málna,872.316613971605,None,4,4.059732458670624,872.316613971605,None,872.316613971605,None,872.316613971605,None,dominó,876.4257394365268,None,876.4257394365268,None,down,3.006500372895971,876.4257394365268,None,879.4973878460005,None,4,1.2883402573643252,879.4973878460005,None,,,,,,,,,,,,,,,,,,,,,,,,,,,,,030718,2022_Apr_07_1131,palt,2021.1.2,48.50838429759559,
5,karton,hentes,,,,,,,,,2,0,2,0,,,,,0,3,3,4,,,,,,,,,880.8283694423735,None,,,,,,,,,,,hentes,881.8489957870916,None,None,,881.8489957870916,None,881.8489957870916,None,881.8489957870916,None,kirakó,896.8481305635069,None,896.8481305635069,None,down,2.712036372977309,896.8481305635069,None,899.6175459995866,None,4,2.985273161204532,899.6175459995866,None,,,,,,,,,,,,,,,,,,,,,,,,,,,,,030718,2022_Apr_07_1131,palt,2021.1.2,48.50838429759559,
4,mocsár,ananász,,,,,,,,,2,0,2,0,,,,,0,4,4,3,,,,,,,,,902.6458993317792,None,,,,,,,,,,,ananász,903.685101547162,None,4,4.138745531672612,903.685101547162,None,903.685101547162,None,903.685101547162,None,mocsár,907.8877445531543,None,907.8877445531543,None,down,3.3048320651287213,907.8877445531543,None,911.2590162700508,None,4,1.5540195574285462,911.2590162700508,None,,,,,,,,,,,,,,,,,,,,,,,,,,,,,030718,2022_Apr_07_1131,palt,2021.1.2,48.50838429759559,
3,fogó,limonádé,,,,,,,,,2,0,2,0,,,,,0,5,5,2,,,,,,,,,912.85792513052,None,,,,,,,,,,,limonádé,913.8750532601262,None,4,4.066067686537281,913.8750532601262,None,913.8750532601262,None,913.8750532601262,None,fogó,918.0018896830734,None,918.0018896830734,None,down,1.5743628850905225,918.0018896830734,None,919.634206062532,None,4,1.5718315930571407,919.634206062532,None,,,,,,,,,,,,,,,,,,,,,,,,,,,,,030718,2022_Apr_07_1131,palt,2021.1.2,48.50838429759559,
7,csavarhúzó,hering,,,,,,,,,2,0,2,0,,,,,0,6,6,6,,,,,,,,,921.2492347654188,None,,,,,,,,,,,csavarhúzó,922.2702915448463,None,4,9.066896833130158,922.2702915448463,None,922.2702915448463,None,922.2702915448463,None,hentes,931.3885149193229,None,931.3885149193229,None,down,1.9323757197707891,931.3885149193229,None,933.3813800907228,None,4,3.313859998015687,933.3813800907228,None,,,,,,,,,,,,,,,,,,,,,,,,,,,,,030718,2022_Apr_07_1131,palt,2021.1.2,48.50838429759559,
2,kötény,tisztás,,,,,,,,,2,0,2,0,,,,,0,7,7,1,,,,,,,,,936.7419574952219,None,,,,,,,,,,,kötény,937.778161284863,None,4,5.622997032362036,937.778161284863,None,937.778161284863,None,937.778161284863,None,tisztás,943.4511226447066,None,943.4511226447066,None,down,2.3644544271519408,943.4511226447066,None,945.8823809135938,None,4,2.8832489361520857,945.8823809135938,None,,,,,,,,,,,,,,,,,,,,,,,,,,,,,030718,2022_Apr_07_1131,palt,2021.1.2,48.50838429759559,
1,bagoly,kirakó,,,,,,,,,2,0,2,0,,,,,0,8,8,0,,,,,,,,,948.8213039684342,None,,,,,,,,,,,bagoly,949.8633665220113,None,4,6.488235821016133,949.8633665220113,None,949.8633665220113,None,949.8633665220113,None,,956.4149854106363,None,956.4149854106363,None,down,1.5768730286508799,956.4149854106363,None,958.0624674608698,None,4,1.175117265433073,958.0624674608698,None,,,,,,,,,,,,,,,,,,,,,,,,,,,,,030718,2022_Apr_07_1131,palt,2021.1.2,48.50838429759559,
9,szilva,kecske,,,,,,,,,2,0,2,0,,,,,0,9,9,8,,,,,,,,,959.2773719471879,None,,,,,,,,,,,kecske,960.3001174987294,None,4,12.490557182813063,960.3001174987294,None,960.3001174987294,None,960.3001174987294,None, ,972.837517113192,None,972.837517113192,None,down,1.4419783948687837,972.837517113192,None,974.3431084104814,None,4,1.2204587737796828,974.3431084104814,None,,,,,,,,,,,,,,,,,,,,,,,,,,,,,030718,2022_Apr_07_1131,palt,2021.1.2,48.50838429759559,
,,,,,,,,,,,2,0,2,0,,,,,,,,,,,,,,,,,,,,,,,,,,,,,,,,,,,,,,,,,,,,,,,,,,,,,,,,,,,,,,,,,,,,,,,,,,,4,23.6135218704585,975.6348187477561,None,975.6348187477561,None,,,030718,2022_Apr_07_1131,palt,2021.1.2,48.50838429759559,
1,bagoly,kirakó,,,,,,,,,3,0,3,0,0,0,0,0,,,,,,,,,,,,,1003.3349124233937,None,1004.3374651749618,None,1004.3374651749618,None,,,,,,,,,,,,,,,,,,,,,,,,,,,,,,,,,,,,,,,999.3052712080535,None,,,,,,,,,,,,,,,,,,,,,030718,2022_Apr_07_1131,palt,2021.1.2,48.50838429759559,
7,csavarhúzó,hering,,,,,,,,,3,0,3,0,0,1,1,6,,,,,,,,,,,,,1010.318741575582,None,1011.3340807886561,None,1011.3340807886561,None,,,,,,,,,,,,,,,,,,,,,,,,,,,,,,,,,,,,,,,,,,,,,,,,,,,,,,,,,,,,,030718,2022_Apr_07_1131,palt,2021.1.2,48.50838429759559,
3,fogó,limonádé,,,,,,,,,3,0,3,0,0,2,2,2,,,,,,,,,,,,,1017.3307725992054,None,1018.3516555253882,None,1018.3516555253882,None,,,,,,,,,,,,,,,,,,,,,,,,,,,,,,,,,,,,,,,,,,,,,,,,,,,,,,,,,,,,,030718,2022_Apr_07_1131,palt,2021.1.2,48.50838429759559,
10,málna,dominó,,,,,,,,,3,0,3,0,0,3,3,9,,,,,,,,,,,,,1024.3156470485264,None,1025.3482929095626,None,1025.3482929095626,None,,,,,,,,,,,,,,,,,,,,,,,,,,,,,,,,,,,,,,,,,,,,,,,,,,,,,,,,,,,,,030718,2022_Apr_07_1131,palt,2021.1.2,48.50838429759559,
5,karton,hentes,,,,,,,,,3,0,3,0,0,4,4,4,,,,,,,,,,,,,1031.3185602580197,None,1032.3433621927397,None,1032.3433621927397,None,,,,,,,,,,,,,,,,,,,,,,,,,,,,,,,,,,,,,,,,,,,,,,,,,,,,,,,,,,,,,030718,2022_Apr_07_1131,palt,2021.1.2,48.50838429759559,
2,kötény,tisztás,,,,,,,,,3,0,3,0,0,5,5,1,,,,,,,,,,,,,1038.3189760753885,None,1039.3368565327255,None,1039.3368565327255,None,,,,,,,,,,,,,,,,,,,,,,,,,,,,,,,,,,,,,,,,,,,,,,,,,,,,,,,,,,,,,030718,2022_Apr_07_1131,palt,2021.1.2,48.50838429759559,
9,szilva,kecske,,,,,,,,,3,0,3,0,0,6,6,8,,,,,,,,,,,,,1045.3343532313593,None,1046.328487936291,None,1046.328487936291,None,,,,,,,,,,,,,,,,,,,,,,,,,,,,,,,,,,,,,,,,,,,,,,,,,,,,,,,,,,,,,030718,2022_Apr_07_1131,palt,2021.1.2,48.50838429759559,
6,menta,triatlon,,,,,,,,,3,0,3,0,0,7,7,5,,,,,,,,,,,,,1052.3154184578452,None,1053.3384852802847,None,1053.3384852802847,None,,,,,,,,,,,,,,,,,,,,,,,,,,,,,,,,,,,,,,,,,,,,,,,,,,,,,,,,,,,,,030718,2022_Apr_07_1131,palt,2021.1.2,48.50838429759559,
4,mocsár,ananász,,,,,,,,,3,0,3,0,0,8,8,3,,,,,,,,,,,,,1059.3282630777685,None,1060.3429765432375,None,1060.3429765432375,None,,,,,,,,,,,,,,,,,,,,,,,,,,,,,,,,,,,,,,,,,,,,,,,,,,,,,,,,,,,,,030718,2022_Apr_07_1131,palt,2021.1.2,48.50838429759559,
8,szalvéta,puska,,,,,,,,,3,0,3,0,0,9,9,7,,,,,,,,,,,,,1066.3096489531454,None,1067.328462433652,None,1067.328462433652,None,,,,,,,,,,,,,,,,,,,,,,,,,,,,,,,,,,,,,,,,,,,,,,,,,,,,,,,,,,,,,030718,2022_Apr_07_1131,palt,2021.1.2,48.50838429759559,
6,menta,triatlon,,,,,,,,,3,0,3,0,,,,,0,0,0,5,,,,,,,,,1086.7634870064212,None,,,,,,,,,,,triatlon,1087.7658469332382,None,4,6.791230452363379,1087.7658469332382,None,1087.7658469332382,None,1087.7658469332382,None,málna,1094.5990012297407,None,1094.5990012297407,None,down,2.943633578135632,1094.5990012297407,None,1097.603436200181,None,4,1.2736056434223428,1097.603436200181,None,,,,,,,1082.7349445815198,None,1073.3311958807753,None,u,4.131648645852692,1073.3311958807753,None,1077.500541464542,None,4,5.186372013762593,1077.500541464542,None,,,,,,,,,030718,2022_Apr_07_1131,palt,2021.1.2,48.50838429759559,
3,fogó,limonádé,,,,,,,,,3,0,3,0,,,,,0,1,1,2,,,,,,,,,1098.9103790748632,None,,,,,,,,,,,limonádé,1099.936581166461,None,4,5.957470934838057,1099.936581166461,None,1099.936581166461,None,1099.936581166461,None,fogó,1105.9445616252488,None,1105.9445616252488,None,down,1.821742178290151,1105.9445616252488,None,1107.8197511067847,None,4,1.0195748275145888,1107.8197511067847,None,,,,,,,,,,,,,,,,,,,,,,,,,,,,,030718,2022_Apr_07_1131,palt,2021.1.2,48.50838429759559,
7,csavarhúzó,hering,,,,,,,,,3,0,3,0,,,,,0,2,2,6,,,,,,,,,1108.8956708966289,None,,,,,,,,,,,csavarhúzó,1109.9141805225518,None,4,3.5866899881511927,1109.9141805225518,None,1109.9141805225518,None,1109.9141805225518,None,hering,1113.5524744709255,None,1113.5524744709255,None,down,2.022272508707829,1113.5524744709255,None,1115.6334618210094,None,4,1.2853592481696978,1115.6334618210094,None,,,,,,,,,,,,,,,,,,,,,,,,,,,,,030718,2022_Apr_07_1131,palt,2021.1.2,48.50838429759559,
8,szalvéta,puska,,,,,,,,,3,0,3,0,,,,,0,3,3,7,,,,,,,,,1116.9653064638842,None,,,,,,,,,,,szalvéta,1117.9880582356127,None,4,2.566197065752931,1117.9880582356127,None,1117.9880582356127,None,1117.9880582356127,None,puska,1120.6171255171066,None,1120.6171255171066,None,down,1.9332253928296268,1120.6171255171066,None,1122.6033976352774,None,4,0.8350253191310912,1122.6033976352774,None,,,,,,,,,,,,,,,,,,,,,,,,,,,,,030718,2022_Apr_07_1131,palt,2021.1.2,48.50838429759559,
10,málna,dominó,,,,,,,,,3,0,3,0,,,,,0,4,4,9,,,,,,,,,1123.4818268844392,None,,,,,,,,,,,málna,1124.5225517937215,None,4,2.1856622940395027,1124.5225517937215,None,1124.5225517937215,None,1124.5225517937215,None,dominó,1126.7448912312975,None,1126.7448912312975,None,down,2.317607952398248,1126.7448912312975,None,1129.1111271107802,None,4,1.5016645134892315,1129.1111271107802,None,,,,,,,,,,,,,,,,,,,,,,,,,,,,,030718,2022_Apr_07_1131,palt,2021.1.2,48.50838429759559,
4,mocsár,ananász,,,,,,,,,3,0,3,0,,,,,0,5,5,3,,,,,,,,,1130.6617837414378,None,,,,,,,,,,,ananász,1131.6824685555184,None,4,4.027849810663611,1131.6824685555184,None,1131.6824685555184,None,1131.6824685555184,None,mocsár,1135.7550322609022,None,1135.7550322609022,None,down,1.9313098962884396,1135.7550322609022,None,1137.7267796951346,None,4,0.904637249885127,1137.7267796951346,None,,,,,,,,,,,,,,,,,,,,,,,,,,,,,030718,2022_Apr_07_1131,palt,2021.1.2,48.50838429759559,
2,kötény,tisztás,,,,,,,,,3,0,3,0,,,,,0,6,6,1,,,,,,,,,1138.666576681775,None,,,,,,,,,,,kötény,1139.7094991718186,None,4,3.3622608894947916,1139.7094991718186,None,1139.7094991718186,None,1139.7094991718186,None,tisztás,1143.1238793613156,None,1143.1238793613156,None,down,2.0181675174972042,1143.1238793613156,None,1145.1797080507968,None,4,1.1484197385143489,1145.1797080507968,None,,,,,,,,,,,,,,,,,,,,,,,,,,,,,030718,2022_Apr_07_1131,palt,2021.1.2,48.50838429759559,
9,szilva,kecske,,,,,,,,,3,0,3,0,,,,,0,7,7,8,,,,,,,,,1146.3792005483992,None,,,,,,,,,,,kecske,1147.4227680684999,None,4,10.062295473529957,1147.4227680684999,None,1147.4227680684999,None,1147.4227680684999,None,szalvéta,1157.5409939310048,None,1157.5409939310048,None,down,2.4977731845574453,1157.5409939310048,None,1160.0897866922896,None,4,1.0125059324782342,1160.0897866922896,None,,,,,,,,,,,,,,,,,,,,,,,,,,,,,030718,2022_Apr_07_1131,palt,2021.1.2,48.50838429759559,
1,bagoly,kirakó,,,,,,,,,3,0,3,0,,,,,0,8,8,0,,,,,,,,,1161.1527750910027,None,,,,,,,,,,,bagoly,1162.1912234235788,None,None,,1162.1912234235788,None,1162.1912234235788,None,1162.1912234235788,None,,1177.193700600299,None,1177.193700600299,None,down,2.124482405371964,1177.193700600299,None,1179.3558370245155,None,4,1.1223439160967246,1179.3558370245155,None,,,,,,,,,,,,,,,,,,,,,,,,,,,,,030718,2022_Apr_07_1131,palt,2021.1.2,48.50838429759559,
5,karton,hentes,,,,,,,,,3,0,3,0,,,,,0,9,9,4,,,,,,,,,1180.5208101503085,None,,,,,,,,,,,hentes,1181.5303332074545,None,4,4.038956830161624,1181.5303332074545,None,1181.5303332074545,None,1181.5303332074545,None,karton,1185.6089289080119,None,1185.6089289080119,None,down,1.7898197212489322,1185.6089289080119,None,1187.4650029203622,None,4,0.7919442151905969,1187.4650029203622,None,,,,,,,,,,,,,,,,,,,,,,,,,,,,,030718,2022_Apr_07_1131,palt,2021.1.2,48.50838429759559,
,,,,,,,,,,,3,0,3,0,,,,,,,,,,,,,,,,,,,,,,,,,,,,,,,,,,,,,,,,,,,,,,,,,,,,,,,,,,,,,,,,,,,,,,,,,,,4,36.85026594274677,1188.318776097498,None,1188.318776097498,None,,,030718,2022_Apr_07_1131,palt,2021.1.2,48.50838429759559,
,,,,,,,,,,,,,,,,,,,,,,,,,,,,,,,,,,,,,,,,,,,,,,,,,,,,,,,,,,,,,,,,,,,,,,,,,,,,,,,,,,,,,,,,,,,,,,,1225.2055954026291,None,,,,,,
