itemno,wordA,wordB,enc_gyak.thisRepN,enc_gyak.thisTrialN,enc_gyak.thisN,enc_gyak.thisIndex,rec_gyak.thisRepN,rec_gyak.thisTrialN,rec_gyak.thisN,rec_gyak.thisIndex,repeat_task.thisRepN,repeat_task.thisTrialN,repeat_task.thisN,repeat_task.thisIndex,enc_loop.thisRepN,enc_loop.thisTrialN,enc_loop.thisN,enc_loop.thisIndex,test_loop.thisRepN,test_loop.thisTrialN,test_loop.thisN,test_loop.thisIndex,int.started,int.stopped,int_key.keys,int_key.rt,int_key.started,int_key.stopped,prepare_gyak_text.started,prepare_gyak_text.stopped,fix.started,fix.stopped,word1.started,word1.stopped,word2.started,word2.stopped,gykrec_inst.started,gykrec_inst.stopped,gyakrec_inst.keys,gyakrec_inst.rt,gyakrec_inst.started,gyakrec_inst.stopped,cueword,cueword1.started,cueword1.stopped,cue_resp.keys,cue_resp.rt,cue_resp.started,cue_resp.stopped,cue_cont_text.started,cue_cont_text.stopped,cue_space.started,cue_space.stopped,test_ansbox.text,test_ansbox.started,test_ansbox.stopped,ans_text.started,ans_text.stopped,ans_continue.keys,ans_continue.rt,ans_continue.started,ans_continue.stopped,feedback_text.started,feedback_text.stopped,feedback_cont.keys,feedback_cont.rt,feedback_cont.started,feedback_cont.stopped,main_prep.started,main_prep.stopped,main_prep_resp.keys,main_prep_resp.rt,main_prep_resp.started,main_prep_resp.stopped,preparation.started,preparation.stopped,break_text.started,break_text.stopped,key_resp.keys,key_resp.rt,key_resp.started,key_resp.stopped,test_instruction.started,test_instruction.stopped,test_i_key.keys,test_i_key.rt,test_i_key.started,test_i_key.stopped,rep_routine.keys,rep_routine.rt,rep_routine.started,rep_routine.stopped,encrep_textbox.started,encrep_textbox.stopped,end_text.started,end_text.stopped,Résztvevő kódja,date,expName,psychopyVersion,frameRate,
,,,,,,,,,,,,,,,,,,,,,,,21.372279692906886,None,4,116.58002944616601,21.372279692906886,None,,,,,,,,,,,,,,,,,,,,,,,,,,,,,,,,,,,,,,,,,,,,,,,,,,,,,,,,,,,,,,,,,,,,,076057,2022_Apr_06_1652,palt,2021.1.2,52.126054965201405,
4,kard,harcsa,0,0,0,3,,,,,,,,,,,,,,,,,,,,,,,137.99810502969194,None,141.0376325591933,None,142.0304370840313,None,142.0304370840313,None,,,,,,,,,,,,,,,,,,,,,,,,,,,,,,,,,,,,,,,,,,,,,,,,,,,,,,,,,,,,,076057,2022_Apr_06_1652,palt,2021.1.2,52.126054965201405,
2,lepke,szintetizátor,0,1,1,1,,,,,,,,,,,,,,,,,,,,,,,,,148.00933023227844,None,149.0313999640057,None,149.0313999640057,None,,,,,,,,,,,,,,,,,,,,,,,,,,,,,,,,,,,,,,,,,,,,,,,,,,,,,,,,,,,,,076057,2022_Apr_06_1652,palt,2021.1.2,52.126054965201405,
3,majoránna,szikla,0,2,2,2,,,,,,,,,,,,,,,,,,,,,,,,,155.00044691807125,None,156.0152530638734,None,156.0152530638734,None,,,,,,,,,,,,,,,,,,,,,,,,,,,,,,,,,,,,,,,,,,,,,,,,,,,,,,,,,,,,,076057,2022_Apr_06_1652,palt,2021.1.2,52.126054965201405,
1,sapka,beton,0,3,3,0,,,,,,,,,,,,,,,,,,,,,,,,,162.0200186355505,None,163.03637080080807,None,163.03637080080807,None,,,,,,,,,,,,,,,,,,,,,,,,,,,,,,,,,,,,,,,,,,,,,,,,,,,,,,,,,,,,,076057,2022_Apr_06_1652,palt,2021.1.2,52.126054965201405,
,,,,,,,,,,,,,,,,,,,,,,,,,,,,,,,,,,,,,169.01994523766916,None,4,19.0516450132709,169.01994523766916,None,,,,,,,,,,,,,,,,,,,,,,,,,,,,,,,,,,,,,,,,,,,,,,,,,,,,,,,076057,2022_Apr_06_1652,palt,2021.1.2,52.126054965201405,
1,sapka,beton,,,,,0,0,0,0,,,,,,,,,,,,,,,,,,,,,188.13438364793546,None,,,,,,,,,,,beton,189.14569033449516,None,4,8.510652948403731,189.14569033449516,None,189.14569033449516,None,189.14569033449516,None, ,197.72930663300212,None,197.72930663300212,None,down,1.934219684684649,197.72930663300212,None,199.74631595774554,None,4,16.014565114863217,199.74631595774554,None,,,,,,,,,,,,,,,,,,,,,,,,,,,,,076057,2022_Apr_06_1652,palt,2021.1.2,52.126054965201405,
3,majoránna,szikla,,,,,0,1,1,2,,,,,,,,,,,,,,,,,,,,,215.80907265574206,None,,,,,,,,,,,majoránna,216.83848248119466,None,4,2.63285411184188,216.83848248119466,None,216.83848248119466,None,216.83848248119466,None, ,219.53528445074335,None,219.53528445074335,None,down,6.368553198175505,219.53528445074335,None,225.9468366468791,None,4,4.033698622370139,225.9468366468791,None,,,,,,,,,,,,,,,,,,,,,,,,,,,,,076057,2022_Apr_06_1652,palt,2021.1.2,52.126054965201405,
2,lepke,szintetizátor,,,,,0,2,2,1,,,,,,,,,,,,,,,,,,,,,230.01840201730374,None,,,,,,,,,,,lepke,231.0520630076062,None,4,2.0941065897932276,231.0520630076062,None,231.0520630076062,None,231.0520630076062,None, ,233.1836500739446,None,233.1836500739446,None,down,5.663439546595328,233.1836500739446,None,238.8813667172799,None,4,1.1074656165437773,238.8813667172799,None,,,,,,,,,,,,,,,,,,,,,,,,,,,,,076057,2022_Apr_06_1652,palt,2021.1.2,52.126054965201405,
4,kard,harcsa,,,,,0,3,3,3,,,,,,,,,,,,,,,,,,,,,240.03351606067736,None,,,,,,,,,,,harcsa,241.0618277178146,None,4,1.8343650497263297,241.0618277178146,None,241.0618277178146,None,241.0618277178146,None, ,242.93945829907898,None,242.93945829907898,None,down,2.0034618271747604,242.93945829907898,None,244.99763696314767,None,4,1.227566233719699,244.99763696314767,None,,,,,,,,,,,,,,,,,,,,,,,,,,,,,076057,2022_Apr_06_1652,palt,2021.1.2,52.126054965201405,
,,,,,,,,,,,,,,,,,,,,,,,,,,,,,,,,,,,,,,,,,,,,,,,,,,,,,,,,,,,,,,,,,,,,,246.26727819081862,None,4,22.169749582768418,246.26727819081862,None,,,,,,,,,,,,,,,,,,,,,,,076057,2022_Apr_06_1652,palt,2021.1.2,52.126054965201405,
4,mocsár,ananász,,,,,,,,,0,0,0,0,0,0,0,3,,,,,,,,,,,,,272.4983625441091,None,273.5021997577278,None,273.5021997577278,None,,,,,,,,,,,,,,,,,,,,,,,,,,,,,,,,,,,,,,,268.4668160955189,None,,,,,,,,,,,,,,,,,,,,,076057,2022_Apr_06_1652,palt,2021.1.2,52.126054965201405,
10,málna,dominó,,,,,,,,,0,0,0,0,0,1,1,9,,,,,,,,,,,,,279.48533785075415,None,280.48952774715144,None,280.48952774715144,None,,,,,,,,,,,,,,,,,,,,,,,,,,,,,,,,,,,,,,,,,,,,,,,,,,,,,,,,,,,,,076057,2022_Apr_06_1652,palt,2021.1.2,52.126054965201405,
8,szalvéta,puska,,,,,,,,,0,0,0,0,0,2,2,7,,,,,,,,,,,,,286.47639202396385,None,287.50316325970925,None,287.50316325970925,None,,,,,,,,,,,,,,,,,,,,,,,,,,,,,,,,,,,,,,,,,,,,,,,,,,,,,,,,,,,,,076057,2022_Apr_06_1652,palt,2021.1.2,52.126054965201405,
5,karton,hentes,,,,,,,,,0,0,0,0,0,3,3,4,,,,,,,,,,,,,293.49172937090043,None,294.4896176283946,None,294.4896176283946,None,,,,,,,,,,,,,,,,,,,,,,,,,,,,,,,,,,,,,,,,,,,,,,,,,,,,,,,,,,,,,076057,2022_Apr_06_1652,palt,2021.1.2,52.126054965201405,
9,szilva,kecske,,,,,,,,,0,0,0,0,0,4,4,8,,,,,,,,,,,,,300.48994791856967,None,301.50060242193285,None,301.50060242193285,None,,,,,,,,,,,,,,,,,,,,,,,,,,,,,,,,,,,,,,,,,,,,,,,,,,,,,,,,,,,,,076057,2022_Apr_06_1652,palt,2021.1.2,52.126054965201405,
2,kötény,tisztás,,,,,,,,,0,0,0,0,0,5,5,1,,,,,,,,,,,,,307.4845951643074,None,308.49329342890996,None,308.49329342890996,None,,,,,,,,,,,,,,,,,,,,,,,,,,,,,,,,,,,,,,,,,,,,,,,,,,,,,,,,,,,,,076057,2022_Apr_06_1652,palt,2021.1.2,52.126054965201405,
1,bagoly,kirakó,,,,,,,,,0,0,0,0,0,6,6,0,,,,,,,,,,,,,314.4798942821799,None,315.4856112265261,None,315.4856112265261,None,,,,,,,,,,,,,,,,,,,,,,,,,,,,,,,,,,,,,,,,,,,,,,,,,,,,,,,,,,,,,076057,2022_Apr_06_1652,palt,2021.1.2,52.126054965201405,
6,menta,triatlon,,,,,,,,,0,0,0,0,0,7,7,5,,,,,,,,,,,,,321.4700919400202,None,322.4968099935213,None,322.4968099935213,None,,,,,,,,,,,,,,,,,,,,,,,,,,,,,,,,,,,,,,,,,,,,,,,,,,,,,,,,,,,,,076057,2022_Apr_06_1652,palt,2021.1.2,52.126054965201405,
7,csavarhúzó,hering,,,,,,,,,0,0,0,0,0,8,8,6,,,,,,,,,,,,,328.4673311242368,None,329.50175968173426,None,329.50175968173426,None,,,,,,,,,,,,,,,,,,,,,,,,,,,,,,,,,,,,,,,,,,,,,,,,,,,,,,,,,,,,,076057,2022_Apr_06_1652,palt,2021.1.2,52.126054965201405,
3,fogó,limonádé,,,,,,,,,0,0,0,0,0,9,9,2,,,,,,,,,,,,,335.49285055382643,None,336.4946671500802,None,336.4946671500802,None,,,,,,,,,,,,,,,,,,,,,,,,,,,,,,,,,,,,,,,,,,,,,,,,,,,,,,,,,,,,,076057,2022_Apr_06_1652,palt,2021.1.2,52.126054965201405,
9,szilva,kecske,,,,,,,,,0,0,0,0,,,,,0,0,0,8,,,,,,,,,375.260916838306,None,,,,,,,,,,,szilva,376.2516792862443,None,4,7.29770376754459,376.2516792862443,None,376.2516792862443,None,376.2516792862443,None, kutya,383.6069969277596,None,383.6069969277596,None,down,6.26309824665077,383.6069969277596,None,389.91824166162405,None,4,2.40571893483866,389.91824166162405,None,,,,,,,371.22415478969924,None,342.4800183742773,None,u,11.966522193164565,342.4800183742773,None,354.5113122847397,None,4,16.681474885786884,354.5113122847397,None,,,,,,,,,076057,2022_Apr_06_1652,palt,2021.1.2,52.126054965201405,
7,csavarhúzó,hering,,,,,,,,,0,0,0,0,,,,,0,1,1,6,,,,,,,,,392.3762574819848,None,,,,,,,,,,,csavarhúzó,393.4128360360628,None,4,8.030319834128022,393.4128360360628,None,393.4128360360628,None,393.4128360360628,None, ,401.48296361765824,None,401.48296361765824,None,down,2.019263508846052,401.48296361765824,None,403.5476103096735,None,4,1.7514454084448516,403.5476103096735,None,,,,,,,,,,,,,,,,,,,,,,,,,,,,,076057,2022_Apr_06_1652,palt,2021.1.2,52.126054965201405,
8,szalvéta,puska,,,,,,,,,0,0,0,0,,,,,0,2,2,7,,,,,,,,,405.33252761582844,None,,,,,,,,,,,puska,406.3560351363849,None,4,1.9377281629713252,406.3560351363849,None,406.3560351363849,None,406.3560351363849,None, ,408.35287405364215,None,408.35287405364215,None,down,3.2452392489649355,408.35287405364215,None,411.6336418944411,None,4,2.0202285659033805,411.6336418944411,None,,,,,,,,,,,,,,,,,,,,,,,,,,,,,076057,2022_Apr_06_1652,palt,2021.1.2,52.126054965201405,
6,menta,triatlon,,,,,,,,,0,0,0,0,,,,,0,3,3,5,,,,,,,,,413.7090245739091,None,,,,,,,,,,,triatlon,414.73748862487264,None,4,9.866521073621698,414.73748862487264,None,414.73748862487264,None,414.73748862487264,None, ,424.63707510894164,None,424.63707510894164,None,down,2.096925253048539,424.63707510894164,None,426.7773952727439,None,4,2.4966712841996923,426.7773952727439,None,,,,,,,,,,,,,,,,,,,,,,,,,,,,,076057,2022_Apr_06_1652,palt,2021.1.2,52.126054965201405,
3,fogó,limonádé,,,,,,,,,0,0,0,0,,,,,0,4,4,2,,,,,,,,,429.30606272269506,None,,,,,,,,,,,fogó,430.33817613858264,None,4,1.9703211528249085,430.33817613858264,None,430.33817613858264,None,430.33817613858264,None, ,432.36633322481066,None,432.36633322481066,None,down,3.487217581598088,432.36633322481066,None,435.8878848175518,None,4,3.00006842170842,435.8878848175518,None,,,,,,,,,,,,,,,,,,,,,,,,,,,,,076057,2022_Apr_06_1652,palt,2021.1.2,52.126054965201405,
2,kötény,tisztás,,,,,,,,,0,0,0,0,,,,,0,5,5,1,,,,,,,,,438.93186255695764,None,,,,,,,,,,,kötény,439.975493211532,None,4,4.271263755043037,439.975493211532,None,439.975493211532,None,439.975493211532,None, ,444.28769305022433,None,444.28769305022433,None,down,2.301772681879811,444.28769305022433,None,446.6380460751243,None,4,9.18350763246417,446.6380460751243,None,,,,,,,,,,,,,,,,,,,,,,,,,,,,,076057,2022_Apr_06_1652,palt,2021.1.2,52.126054965201405,
4,mocsár,ananász,,,,,,,,,0,0,0,0,,,,,0,6,6,3,,,,,,,,,455.873878894723,None,,,,,,,,,,,ananász,456.898268122226,None,4,11.167329631512985,456.898268122226,None,456.898268122226,None,456.898268122226,None, ,468.1118275001645,None,468.1118275001645,None,down,2.0296300189802423,468.1118275001645,None,470.19242018135265,None,4,1.7510177728254348,470.19242018135265,None,,,,,,,,,,,,,,,,,,,,,,,,,,,,,076057,2022_Apr_06_1652,palt,2021.1.2,52.126054965201405,
1,bagoly,kirakó,,,,,,,,,0,0,0,0,,,,,0,7,7,0,,,,,,,,,471.98577201762237,None,,,,,,,,,,,kirakó,473.0122518390417,None,4,6.6221271437825635,473.0122518390417,None,473.0122518390417,None,473.0122518390417,None, ,479.6896438151598,None,479.6896438151598,None,down,1.875797501532361,479.6896438151598,None,481.6051280822139,None,4,1.2254482710268348,481.6051280822139,None,,,,,,,,,,,,,,,,,,,,,,,,,,,,,076057,2022_Apr_06_1652,palt,2021.1.2,52.126054965201405,
10,málna,dominó,,,,,,,,,0,0,0,0,,,,,0,8,8,9,,,,,,,,,482.88142021058593,None,,,,,,,,,,,málna,483.91147942026146,None,4,3.388819084968418,483.91147942026146,None,483.91147942026146,None,483.91147942026146,None, ,487.36364331888035,None,487.36364331888035,None,down,2.282525034621358,487.36364331888035,None,489.6779265983496,None,4,2.7172821406275034,489.6779265983496,None,,,,,,,,,,,,,,,,,,,,,,,,,,,,,076057,2022_Apr_06_1652,palt,2021.1.2,52.126054965201405,
5,karton,hentes,,,,,,,,,0,0,0,0,,,,,0,9,9,4,,,,,,,,,492.4241268612677,None,,,,,,,,,,,karton,493.44277115364093,None,4,11.835602860548533,493.44277115364093,None,493.44277115364093,None,493.44277115364093,None, ,505.32782300165854,None,505.32782300165854,None,down,1.8700307960389182,505.32782300165854,None,507.24522525351495,None,4,2.0525071267038584,507.24522525351495,None,,,,,,,,,,,,,,,,,,,,,,,,,,,,,076057,2022_Apr_06_1652,palt,2021.1.2,52.126054965201405,
,,,,,,,,,,,0,0,0,0,,,,,,,,,,,,,,,,,,,,,,,,,,,,,,,,,,,,,,,,,,,,,,,,,,,,,,,,,,,,,,,,,,,,,,,,,,,4,134.02657654497307,509.3842027968494,None,509.3842027968494,None,,,076057,2022_Apr_06_1652,palt,2021.1.2,52.126054965201405,
5,karton,hentes,,,,,,,,,1,0,1,0,0,0,0,4,,,,,,,,,,,,,647.4709503214108,None,648.476622791728,None,648.476622791728,None,,,,,,,,,,,,,,,,,,,,,,,,,,,,,,,,,,,,,,,643.44242531294,None,,,,,,,,,,,,,,,,,,,,,076057,2022_Apr_06_1652,palt,2021.1.2,52.126054965201405,
7,csavarhúzó,hering,,,,,,,,,1,0,1,0,0,1,1,6,,,,,,,,,,,,,654.4460028350586,None,655.4676113423193,None,655.4676113423193,None,,,,,,,,,,,,,,,,,,,,,,,,,,,,,,,,,,,,,,,,,,,,,,,,,,,,,,,,,,,,,076057,2022_Apr_06_1652,palt,2021.1.2,52.126054965201405,
3,fogó,limonádé,,,,,,,,,1,0,1,0,0,2,2,2,,,,,,,,,,,,,661.441311905277,None,662.4727843340952,None,662.4727843340952,None,,,,,,,,,,,,,,,,,,,,,,,,,,,,,,,,,,,,,,,,,,,,,,,,,,,,,,,,,,,,,076057,2022_Apr_06_1652,palt,2021.1.2,52.126054965201405,
1,bagoly,kirakó,,,,,,,,,1,0,1,0,0,3,3,0,,,,,,,,,,,,,668.4442154736025,None,669.466446307255,None,669.466446307255,None,,,,,,,,,,,,,,,,,,,,,,,,,,,,,,,,,,,,,,,,,,,,,,,,,,,,,,,,,,,,,076057,2022_Apr_06_1652,palt,2021.1.2,52.126054965201405,
9,szilva,kecske,,,,,,,,,1,0,1,0,0,4,4,8,,,,,,,,,,,,,675.4585124996956,None,676.4697675589705,None,676.4697675589705,None,,,,,,,,,,,,,,,,,,,,,,,,,,,,,,,,,,,,,,,,,,,,,,,,,,,,,,,,,,,,,076057,2022_Apr_06_1652,palt,2021.1.2,52.126054965201405,
6,menta,triatlon,,,,,,,,,1,0,1,0,0,5,5,5,,,,,,,,,,,,,682.4440478404285,None,683.4688385787886,None,683.4688385787886,None,,,,,,,,,,,,,,,,,,,,,,,,,,,,,,,,,,,,,,,,,,,,,,,,,,,,,,,,,,,,,076057,2022_Apr_06_1652,palt,2021.1.2,52.126054965201405,
2,kötény,tisztás,,,,,,,,,1,0,1,0,0,6,6,1,,,,,,,,,,,,,689.4477012483403,None,690.4687723341631,None,690.4687723341631,None,,,,,,,,,,,,,,,,,,,,,,,,,,,,,,,,,,,,,,,,,,,,,,,,,,,,,,,,,,,,,076057,2022_Apr_06_1652,palt,2021.1.2,52.126054965201405,
8,szalvéta,puska,,,,,,,,,1,0,1,0,0,7,7,7,,,,,,,,,,,,,696.4520702852169,None,697.4765590351308,None,697.4765590351308,None,,,,,,,,,,,,,,,,,,,,,,,,,,,,,,,,,,,,,,,,,,,,,,,,,,,,,,,,,,,,,076057,2022_Apr_06_1652,palt,2021.1.2,52.126054965201405,
10,málna,dominó,,,,,,,,,1,0,1,0,0,8,8,9,,,,,,,,,,,,,703.4457642921479,None,704.4648163156817,None,704.4648163156817,None,,,,,,,,,,,,,,,,,,,,,,,,,,,,,,,,,,,,,,,,,,,,,,,,,,,,,,,,,,,,,076057,2022_Apr_06_1652,palt,2021.1.2,52.126054965201405,
4,mocsár,ananász,,,,,,,,,1,0,1,0,0,9,9,3,,,,,,,,,,,,,710.4621108592255,None,711.4737963533262,None,711.4737963533262,None,,,,,,,,,,,,,,,,,,,,,,,,,,,,,,,,,,,,,,,,,,,,,,,,,,,,,,,,,,,,,076057,2022_Apr_06_1652,palt,2021.1.2,52.126054965201405,
3,fogó,limonádé,,,,,,,,,1,0,1,0,,,,,0,0,0,2,,,,,,,,,731.7291296696058,None,,,,,,,,,,,fogó,732.725670641521,None,4,5.410528358537704,732.725670641521,None,732.725670641521,None,732.725670641521,None, ,738.1868534537498,None,738.1868534537498,None,down,2.369145978940651,738.1868534537498,None,740.5868666404858,None,4,2.347500461852178,740.5868666404858,None,,,,,,,727.6976917627035,None,717.4594004267128,None,u,7.73621131607797,717.4594004267128,None,725.2467389282538,None,4,2.420229934155941,725.2467389282538,None,,,,,,,,,076057,2022_Apr_06_1652,palt,2021.1.2,52.126054965201405,
1,bagoly,kirakó,,,,,,,,,1,0,1,0,,,,,0,1,1,0,,,,,,,,,742.9890528382966,None,,,,,,,,,,,kirakó,744.0267516422318,None,4,3.9544877484440804,744.0267516422318,None,744.0267516422318,None,744.0267516422318,None, ,748.0140205401694,None,748.0140205401694,None,down,1.837264263886027,748.0140205401694,None,749.9014715020312,None,4,1.5880587331485003,749.9014715020312,None,,,,,,,,,,,,,,,,,,,,,,,,,,,,,076057,2022_Apr_06_1652,palt,2021.1.2,52.126054965201405,
9,szilva,kecske,,,,,,,,,1,0,1,0,,,,,0,2,2,8,,,,,,,,,751.5190131474519,None,,,,,,,,,,,szilva,752.5533813694492,None,4,6.999874974833801,752.5533813694492,None,752.5533813694492,None,752.5533813694492,None, ,759.6127412408823,None,759.6127412408823,None,down,9.647333388449624,759.6127412408823,None,769.2912497348152,None,4,3.0270020035095513,769.2912497348152,None,,,,,,,,,,,,,,,,,,,,,,,,,,,,,076057,2022_Apr_06_1652,palt,2021.1.2,52.126054965201405,
6,menta,triatlon,,,,,,,,,1,0,1,0,,,,,0,3,3,5,,,,,,,,,772.3561962383101,None,,,,,,,,,,,triatlon,773.3932164233411,None,4,6.5520810461603105,773.3932164233411,None,773.3932164233411,None,773.3932164233411,None, ,779.998778983485,None,779.998778983485,None,down,2.38096893846523,779.998778983485,None,782.4265909756068,None,4,1.6253927251091227,782.4265909756068,None,,,,,,,,,,,,,,,,,,,,,,,,,,,,,076057,2022_Apr_06_1652,palt,2021.1.2,52.126054965201405,
4,mocsár,ananász,,,,,,,,,1,0,1,0,,,,,0,4,4,3,,,,,,,,,784.1072510210797,None,,,,,,,,,,,ananász,785.1158886392368,None,4,8.682279462809674,785.1158886392368,None,785.1158886392368,None,785.1158886392368,None, mocsár,793.8407148948172,None,793.8407148948172,None,down,4.234754555742256,793.8407148948172,None,798.1393022354459,None,4,3.769555700593628,798.1393022354459,None,,,,,,,,,,,,,,,,,,,,,,,,,,,,,076057,2022_Apr_06_1652,palt,2021.1.2,52.126054965201405,
2,kötény,tisztás,,,,,,,,,1,0,1,0,,,,,0,5,5,1,,,,,,,,,801.9351862967014,None,,,,,,,,,,,kötény,802.9661449406995,None,None,,802.9661449406995,None,802.9661449406995,None,802.9661449406995,None, ,817.9469909067266,None,817.9469909067266,None,down,8.879612944554538,817.9469909067266,None,826.8906720690429,None,4,1.3081119528505951,826.8906720690429,None,,,,,,,,,,,,,,,,,,,,,,,,,,,,,076057,2022_Apr_06_1652,palt,2021.1.2,52.126054965201405,
8,szalvéta,puska,,,,,,,,,1,0,1,0,,,,,0,6,6,7,,,,,,,,,828.2455742042512,None,,,,,,,,,,,puska,829.2691999076633,None,4,13.062476791092195,829.2691999076633,None,829.2691999076633,None,829.2691999076633,None, ,842.3785604943987,None,842.3785604943987,None,down,2.0641484577208757,842.3785604943987,None,844.480100480374,None,4,1.8816935864742845,844.480100480374,None,,,,,,,,,,,,,,,,,,,,,,,,,,,,,076057,2022_Apr_06_1652,palt,2021.1.2,52.126054965201405,
10,málna,dominó,,,,,,,,,1,0,1,0,,,,,0,7,7,9,,,,,,,,,846.4122979926178,None,,,,,,,,,,,málna,847.4469598059077,None,None,,847.4469598059077,None,847.4469598059077,None,847.4469598059077,None, ,862.4419398298487,None,862.4419398298487,None,down,4.11262492404785,862.4419398298487,None,866.6081436133245,None,4,2.2102493224665523,866.6081436133245,None,,,,,,,,,,,,,,,,,,,,,,,,,,,,,076057,2022_Apr_06_1652,palt,2021.1.2,52.126054965201405,
5,karton,hentes,,,,,,,,,1,0,1,0,,,,,0,8,8,4,,,,,,,,,868.8739665989997,None,,,,,,,,,,,karton,869.899551962153,None,4,3.392677135998383,869.899551962153,None,869.899551962153,None,869.899551962153,None, ,873.3547463202849,None,873.3547463202849,None,down,3.2316569186514243,873.3547463202849,None,876.6153518399224,None,4,2.063077035942115,876.6153518399224,None,,,,,,,,,,,,,,,,,,,,,,,,,,,,,076057,2022_Apr_06_1652,palt,2021.1.2,52.126054965201405,
7,csavarhúzó,hering,,,,,,,,,1,0,1,0,,,,,0,9,9,6,,,,,,,,,878.7204789891839,None,,,,,,,,,,,csavarhúzó,879.7413578721462,None,4,5.005739025888033,879.7413578721462,None,879.7413578721462,None,879.7413578721462,None, ,884.8062664328609,None,884.8062664328609,None,down,2.54785413981881,884.8062664328609,None,887.4126649817917,None,4,1.3300712767522782,887.4126649817917,None,,,,,,,,,,,,,,,,,,,,,,,,,,,,,076057,2022_Apr_06_1652,palt,2021.1.2,52.126054965201405,
,,,,,,,,,,,1,0,1,0,,,,,,,,,,,,,,,,,,,,,,,,,,,,,,,,,,,,,,,,,,,,,,,,,,,,,,,,,,,,,,,,,,,,,,,,,,,4,25.484017623006366,888.8164892573841,None,888.8164892573841,None,,,076057,2022_Apr_06_1652,palt,2021.1.2,52.126054965201405,
1,bagoly,kirakó,,,,,,,,,2,0,2,0,0,0,0,0,,,,,,,,,,,,,918.3923505778657,None,919.3681544861756,None,919.3681544861756,None,,,,,,,,,,,,,,,,,,,,,,,,,,,,,,,,,,,,,,,914.3519242359325,None,,,,,,,,,,,,,,,,,,,,,076057,2022_Apr_06_1652,palt,2021.1.2,52.126054965201405,
5,karton,hentes,,,,,,,,,2,0,2,0,0,1,1,4,,,,,,,,,,,,,925.350989657687,None,926.3732217353536,None,926.3732217353536,None,,,,,,,,,,,,,,,,,,,,,,,,,,,,,,,,,,,,,,,,,,,,,,,,,,,,,,,,,,,,,076057,2022_Apr_06_1652,palt,2021.1.2,52.126054965201405,
10,málna,dominó,,,,,,,,,2,0,2,0,0,2,2,9,,,,,,,,,,,,,932.3470591418445,None,933.3752697213786,None,933.3752697213786,None,,,,,,,,,,,,,,,,,,,,,,,,,,,,,,,,,,,,,,,,,,,,,,,,,,,,,,,,,,,,,076057,2022_Apr_06_1652,palt,2021.1.2,52.126054965201405,
4,mocsár,ananász,,,,,,,,,2,0,2,0,0,3,3,3,,,,,,,,,,,,,939.3715475806966,None,940.3635702320607,None,940.3635702320607,None,,,,,,,,,,,,,,,,,,,,,,,,,,,,,,,,,,,,,,,,,,,,,,,,,,,,,,,,,,,,,076057,2022_Apr_06_1652,palt,2021.1.2,52.126054965201405,
2,kötény,tisztás,,,,,,,,,2,0,2,0,0,4,4,1,,,,,,,,,,,,,946.3594705279684,None,947.3691238973988,None,947.3691238973988,None,,,,,,,,,,,,,,,,,,,,,,,,,,,,,,,,,,,,,,,,,,,,,,,,,,,,,,,,,,,,,076057,2022_Apr_06_1652,palt,2021.1.2,52.126054965201405,
7,csavarhúzó,hering,,,,,,,,,2,0,2,0,0,5,5,6,,,,,,,,,,,,,953.3666317922762,None,954.377480364521,None,954.377480364521,None,,,,,,,,,,,,,,,,,,,,,,,,,,,,,,,,,,,,,,,,,,,,,,,,,,,,,,,,,,,,,076057,2022_Apr_06_1652,palt,2021.1.2,52.126054965201405,
6,menta,triatlon,,,,,,,,,2,0,2,0,0,6,6,5,,,,,,,,,,,,,960.3660648252117,None,961.3640215042979,None,961.3640215042979,None,,,,,,,,,,,,,,,,,,,,,,,,,,,,,,,,,,,,,,,,,,,,,,,,,,,,,,,,,,,,,076057,2022_Apr_06_1652,palt,2021.1.2,52.126054965201405,
9,szilva,kecske,,,,,,,,,2,0,2,0,0,7,7,8,,,,,,,,,,,,,967.3616737067932,None,968.3674783554161,None,968.3674783554161,None,,,,,,,,,,,,,,,,,,,,,,,,,,,,,,,,,,,,,,,,,,,,,,,,,,,,,,,,,,,,,076057,2022_Apr_06_1652,palt,2021.1.2,52.126054965201405,
3,fogó,limonádé,,,,,,,,,2,0,2,0,0,8,8,2,,,,,,,,,,,,,974.3527232148917,None,975.3778650810709,None,975.3778650810709,None,,,,,,,,,,,,,,,,,,,,,,,,,,,,,,,,,,,,,,,,,,,,,,,,,,,,,,,,,,,,,076057,2022_Apr_06_1652,palt,2021.1.2,52.126054965201405,
8,szalvéta,puska,,,,,,,,,2,0,2,0,0,9,9,7,,,,,,,,,,,,,981.3528093639761,None,982.3819787804969,None,982.3819787804969,None,,,,,,,,,,,,,,,,,,,,,,,,,,,,,,,,,,,,,,,,,,,,,,,,,,,,,,,,,,,,,076057,2022_Apr_06_1652,palt,2021.1.2,52.126054965201405,
7,csavarhúzó,hering,,,,,,,,,2,0,2,0,,,,,0,0,0,6,,,,,,,,,1005.9279177347198,None,,,,,,,,,,,csavarhúzó,1006.9149866546504,None,4,4.711846036254428,1006.9149866546504,None,1006.9149866546504,None,1006.9149866546504,None, ,1011.6627497313311,None,1011.6627497313311,None,down,3.4344373900676146,1011.6627497313311,None,1015.1369267582195,None,4,1.532721436000429,1015.1369267582195,None,,,,,,,1001.9018201417057,None,988.3544402886182,None,u,8.77557556645479,988.3544402886182,None,997.1769285745686,None,4,4.680934354313649,997.1769285745686,None,,,,,,,,,076057,2022_Apr_06_1652,palt,2021.1.2,52.126054965201405,
5,karton,hentes,,,,,,,,,2,0,2,0,,,,,0,1,1,4,,,,,,,,,1016.7127585329581,None,,,,,,,,,,,karton,1017.7319383806316,None,4,3.0867907545762137,1017.7319383806316,None,1017.7319383806316,None,1017.7319383806316,None, ,1020.8668473206926,None,1020.8668473206926,None,down,2.2302975038765,1020.8668473206926,None,1023.1267480967799,None,4,1.889479976380244,1023.1267480967799,None,,,,,,,,,,,,,,,,,,,,,,,,,,,,,076057,2022_Apr_06_1652,palt,2021.1.2,52.126054965201405,
9,szilva,kecske,,,,,,,,,2,0,2,0,,,,,0,2,2,8,,,,,,,,,1025.0681041651405,None,,,,,,,,,,,szilva,1026.1072759017115,None,4,7.549980810843408,1026.1072759017115,None,1026.1072759017115,None,1026.1072759017115,None, kecske,1033.7004836791893,None,1033.7004836791893,None,down,3.620963974739425,1033.7004836791893,None,1037.3715099487454,None,4,2.1539637626847252,1037.3715099487454,None,,,,,,,,,,,,,,,,,,,,,,,,,,,,,076057,2022_Apr_06_1652,palt,2021.1.2,52.126054965201405,
1,bagoly,kirakó,,,,,,,,,2,0,2,0,,,,,0,3,3,0,,,,,,,,,1039.5585717777722,None,,,,,,,,,,,kirakó,1040.5724620056571,None,4,6.773584805894643,1040.5724620056571,None,1040.5724620056571,None,1040.5724620056571,None, ,1047.4044456690317,None,1047.4044456690317,None,down,2.1884946416830644,1047.4044456690317,None,1049.6481572479242,None,4,1.250855426886119,1049.6481572479242,None,,,,,,,,,,,,,,,,,,,,,,,,,,,,,076057,2022_Apr_06_1652,palt,2021.1.2,52.126054965201405,
4,mocsár,ananász,,,,,,,,,2,0,2,0,,,,,0,4,4,3,,,,,,,,,1050.9341798756504,None,,,,,,,,,,,ananász,1051.9654134504963,None,4,6.912406845483929,1051.9654134504963,None,1051.9654134504963,None,1051.9654134504963,None, mocsár,1058.9229811086552,None,1058.9229811086552,None,down,3.87004852341488,1058.9229811086552,None,1062.838832053938,None,4,1.4945782019058242,1062.838832053938,None,,,,,,,,,,,,,,,,,,,,,,,,,,,,,076057,2022_Apr_06_1652,palt,2021.1.2,52.126054965201405,
10,málna,dominó,,,,,,,,,2,0,2,0,,,,,0,5,5,9,,,,,,,,,1064.3778548177797,None,,,,,,,,,,,málna,1065.398985928041,None,4,9.596886376966722,1065.398985928041,None,1065.398985928041,None,1065.398985928041,None, ,1075.051854943391,None,1075.051854943391,None,down,2.5732112233527005,1075.051854943391,None,1077.6738514639437,None,4,1.3910916185704991,1077.6738514639437,None,,,,,,,,,,,,,,,,,,,,,,,,,,,,,076057,2022_Apr_06_1652,palt,2021.1.2,52.126054965201405,
3,fogó,limonádé,,,,,,,,,2,0,2,0,,,,,0,6,6,2,,,,,,,,,1079.1004275111482,None,,,,,,,,,,,fogó,1080.1172129102051,None,4,7.210582722793333,1080.1172129102051,None,1080.1172129102051,None,1080.1172129102051,None, ,1087.3603152249707,None,1087.3603152249707,None,down,3.000701633398421,1087.3603152249707,None,1090.4102276141057,None,4,1.5699319577543065,1090.4102276141057,None,,,,,,,,,,,,,,,,,,,,,,,,,,,,,076057,2022_Apr_06_1652,palt,2021.1.2,52.126054965201405,
2,kötény,tisztás,,,,,,,,,2,0,2,0,,,,,0,7,7,1,,,,,,,,,1092.0270247070584,None,,,,,,,,,,,kötény,1093.0456976121059,None,4,6.708379854913801,1093.0456976121059,None,1093.0456976121059,None,1093.0456976121059,None, tisztás,1099.805023334804,None,1099.805023334804,None,down,3.8996732552768663,1099.805023334804,None,1103.773107719957,None,4,3.636354504036717,1103.773107719957,None,,,,,,,,,,,,,,,,,,,,,,,,,,,,,076057,2022_Apr_06_1652,palt,2021.1.2,52.126054965201405,
8,szalvéta,puska,,,,,,,,,2,0,2,0,,,,,0,8,8,7,,,,,,,,,1107.44305354869,None,,,,,,,,,,,puska,1108.4589466664474,None,4,4.321645765798166,1108.4589466664474,None,1108.4589466664474,None,1108.4589466664474,None, ,1112.8131894652033,None,1112.8131894652033,None,down,6.283441574429162,1112.8131894652033,None,1119.1612289034529,None,4,1.2980940822744742,1119.1612289034529,None,,,,,,,,,,,,,,,,,,,,,,,,,,,,,076057,2022_Apr_06_1652,palt,2021.1.2,52.126054965201405,
6,menta,triatlon,,,,,,,,,2,0,2,0,,,,,0,9,9,5,,,,,,,,,1120.4933335488895,None,,,,,,,,,,,triatlon,1121.5078737830045,None,4,12.664627596270293,1121.5078737830045,None,1121.5078737830045,None,1121.5078737830045,None, ,1134.217351184343,None,1134.217351184343,None,down,2.49511033622548,1134.217351184343,None,1136.7428283168701,None,4,1.1596172613790259,1136.7428283168701,None,,,,,,,,,,,,,,,,,,,,,,,,,,,,,076057,2022_Apr_06_1652,palt,2021.1.2,52.126054965201405,
,,,,,,,,,,,2,0,2,0,,,,,,,,,,,,,,,,,,,,,,,,,,,,,,,,,,,,,,,,,,,,,,,,,,,,,,,,,,,,,,,,,,,,,,,,,,,4,33.53618606226519,1137.97065424209,None,1137.97065424209,None,,,076057,2022_Apr_06_1652,palt,2021.1.2,52.126054965201405,
3,fogó,limonádé,,,,,,,,,3,0,3,0,0,0,0,2,,,,,,,,,,,,,1175.56312524213,None,1176.5559546475997,None,1176.5559546475997,None,,,,,,,,,,,,,,,,,,,,,,,,,,,,,,,,,,,,,,,1171.54011751106,None,,,,,,,,,,,,,,,,,,,,,076057,2022_Apr_06_1652,palt,2021.1.2,52.126054965201405,
5,karton,hentes,,,,,,,,,3,0,3,0,0,1,1,4,,,,,,,,,,,,,1182.55904326553,None,1183.557578418986,None,1183.557578418986,None,,,,,,,,,,,,,,,,,,,,,,,,,,,,,,,,,,,,,,,,,,,,,,,,,,,,,,,,,,,,,076057,2022_Apr_06_1652,palt,2021.1.2,52.126054965201405,
9,szilva,kecske,,,,,,,,,3,0,3,0,0,2,2,8,,,,,,,,,,,,,1189.545228301431,None,1190.561754008988,None,1190.561754008988,None,,,,,,,,,,,,,,,,,,,,,,,,,,,,,,,,,,,,,,,,,,,,,,,,,,,,,,,,,,,,,076057,2022_Apr_06_1652,palt,2021.1.2,52.126054965201405,
8,szalvéta,puska,,,,,,,,,3,0,3,0,0,3,3,7,,,,,,,,,,,,,1196.5440561132273,None,1197.564892699127,None,1197.564892699127,None,,,,,,,,,,,,,,,,,,,,,,,,,,,,,,,,,,,,,,,,,,,,,,,,,,,,,,,,,,,,,076057,2022_Apr_06_1652,palt,2021.1.2,52.126054965201405,
4,mocsár,ananász,,,,,,,,,3,0,3,0,0,4,4,3,,,,,,,,,,,,,1203.54679671349,None,1204.5543912115972,None,1204.5543912115972,None,,,,,,,,,,,,,,,,,,,,,,,,,,,,,,,,,,,,,,,,,,,,,,,,,,,,,,,,,,,,,076057,2022_Apr_06_1652,palt,2021.1.2,52.126054965201405,
7,csavarhúzó,hering,,,,,,,,,3,0,3,0,0,5,5,6,,,,,,,,,,,,,1210.546393336379,None,1211.5655215567676,None,1211.5655215567676,None,,,,,,,,,,,,,,,,,,,,,,,,,,,,,,,,,,,,,,,,,,,,,,,,,,,,,,,,,,,,,076057,2022_Apr_06_1652,palt,2021.1.2,52.126054965201405,
10,málna,dominó,,,,,,,,,3,0,3,0,0,6,6,9,,,,,,,,,,,,,1217.5425505246967,None,1218.5648376507452,None,1218.5648376507452,None,,,,,,,,,,,,,,,,,,,,,,,,,,,,,,,,,,,,,,,,,,,,,,,,,,,,,,,,,,,,,076057,2022_Apr_06_1652,palt,2021.1.2,52.126054965201405,
2,kötény,tisztás,,,,,,,,,3,0,3,0,0,7,7,1,,,,,,,,,,,,,1224.540187176899,None,1225.5527916987194,None,1225.5527916987194,None,,,,,,,,,,,,,,,,,,,,,,,,,,,,,,,,,,,,,,,,,,,,,,,,,,,,,,,,,,,,,076057,2022_Apr_06_1652,palt,2021.1.2,52.126054965201405,
1,bagoly,kirakó,,,,,,,,,3,0,3,0,0,8,8,0,,,,,,,,,,,,,1231.54441004002,None,1232.5651735391002,None,1232.5651735391002,None,,,,,,,,,,,,,,,,,,,,,,,,,,,,,,,,,,,,,,,,,,,,,,,,,,,,,,,,,,,,,076057,2022_Apr_06_1652,palt,2021.1.2,52.126054965201405,
6,menta,triatlon,,,,,,,,,3,0,3,0,0,9,9,5,,,,,,,,,,,,,1238.5428668195382,None,1239.555527011864,None,1239.555527011864,None,,,,,,,,,,,,,,,,,,,,,,,,,,,,,,,,,,,,,,,,,,,,,,,,,,,,,,,,,,,,,076057,2022_Apr_06_1652,palt,2021.1.2,52.126054965201405,
1,bagoly,kirakó,,,,,,,,,3,0,3,0,,,,,0,0,0,0,,,,,,,,,1265.530114879948,None,,,,,,,,,,,kirakó,1266.5287806567503,None,4,4.657586691784672,1266.5287806567503,None,1266.5287806567503,None,1266.5287806567503,None,,1271.2302682689624,None,1271.2302682689624,None,down,3.737474629539065,1271.2302682689624,None,1275.0007103416137,None,4,1.2096385032637045,1275.0007103416137,None,,,,,,,1261.5031980925705,None,1245.5399402367184,None,u,5.427656488260254,1245.5399402367184,None,1251.016019075876,None,4,10.434427748899907,1251.016019075876,None,,,,,,,,,076057,2022_Apr_06_1652,palt,2021.1.2,52.126054965201405,
10,málna,dominó,,,,,,,,,3,0,3,0,,,,,0,1,1,9,,,,,,,,,1276.2547212530626,None,,,,,,,,,,,málna,1277.2918151469203,None,None,,1277.2918151469203,None,1277.2918151469203,None,1277.2918151469203,None, ,1292.261902732891,None,1292.261902732891,None,down,8.545352704590186,1292.261902732891,None,1300.8422108420637,None,4,1.5889233347261325,1300.8422108420637,None,,,,,,,,,,,,,,,,,,,,,,,,,,,,,076057,2022_Apr_06_1652,palt,2021.1.2,52.126054965201405,
4,mocsár,ananász,,,,,,,,,3,0,3,0,,,,,0,2,2,3,,,,,,,,,1302.4813986266963,None,,,,,,,,,,,ananász,1303.5235426642466,None,4,6.432032678159885,1303.5235426642466,None,1303.5235426642466,None,1303.5235426642466,None, ,1309.9997328442987,None,1309.9997328442987,None,down,4.232161995139904,1309.9997328442987,None,1314.279334717081,None,4,0.9930247182492167,1314.279334717081,None,,,,,,,,,,,,,,,,,,,,,,,,,,,,,076057,2022_Apr_06_1652,palt,2021.1.2,52.126054965201405,
7,csavarhúzó,hering,,,,,,,,,3,0,3,0,,,,,0,3,3,6,,,,,,,,,1315.3177678103093,None,,,,,,,,,,,csavarhúzó,1316.359502250678,None,4,5.264862593612634,1316.359502250678,None,1316.359502250678,None,1316.359502250678,None, hering,1321.673066480318,None,1321.673066480318,None,down,3.0699714557267725,1321.673066480318,None,1324.7971644800855,None,4,11.182978608296253,1324.7971644800855,None,,,,,,,,,,,,,,,,,,,,,,,,,,,,,076057,2022_Apr_06_1652,palt,2021.1.2,52.126054965201405,
3,fogó,limonádé,,,,,,,,,3,0,3,0,,,,,0,4,4,2,,,,,,,,,1336.0167381258216,None,,,,,,,,,,,fogó,1337.0507776126033,None,4,9.972099184058607,1337.0507776126033,None,1337.0507776126033,None,1337.0507776126033,None, ,1347.0797632235335,None,1347.0797632235335,None,down,2.36700282455422,1347.0797632235335,None,1349.4923084673937,None,4,1.130034826695919,1349.4923084673937,None,,,,,,,,,,,,,,,,,,,,,,,,,,,,,076057,2022_Apr_06_1652,palt,2021.1.2,52.126054965201405,
5,karton,hentes,,,,,,,,,3,0,3,0,,,,,0,5,5,4,,,,,,,,,1350.6668935986236,None,,,,,,,,,,,karton,1351.7012195235584,None,4,8.417467563529499,1351.7012195235584,None,1351.7012195235584,None,1351.7012195235584,None, ,1360.1640425905352,None,1360.1640425905352,None,down,2.610992755391635,1360.1640425905352,None,1362.831060592318,None,4,1.2316323489649221,1362.831060592318,None,,,,,,,,,,,,,,,,,,,,,,,,,,,,,076057,2022_Apr_06_1652,palt,2021.1.2,52.126054965201405,
8,szalvéta,puska,,,,,,,,,3,0,3,0,,,,,0,6,6,7,,,,,,,,,1364.093892305391,None,,,,,,,,,,,puska,1365.125992969959,None,None,,1365.125992969959,None,1365.125992969959,None,1365.125992969959,None, ,1380.122823179001,None,1380.122823179001,None,down,1.9324189499020576,1380.122823179001,None,1382.0994991530897,None,4,1.058137610903941,1382.0994991530897,None,,,,,,,,,,,,,,,,,,,,,,,,,,,,,076057,2022_Apr_06_1652,palt,2021.1.2,52.126054965201405,
6,menta,triatlon,,,,,,,,,3,0,3,0,,,,,0,7,7,5,,,,,,,,,1383.1982413133373,None,,,,,,,,,,,triatlon,1384.237442906713,None,None,,1384.237442906713,None,1384.237442906713,None,1384.237442906713,None, ,1399.2142958441982,None,1399.2142958441982,None,down,6.536406566738151,1399.2142958441982,None,1405.7941505040508,None,4,6.324344691121951,1405.7941505040508,None,,,,,,,,,,,,,,,,,,,,,,,,,,,,,076057,2022_Apr_06_1652,palt,2021.1.2,52.126054965201405,
9,szilva,kecske,,,,,,,,,3,0,3,0,,,,,0,8,8,8,,,,,,,,,1412.1589274462312,None,,,,,,,,,,,szilva,1413.1769519001245,None,None,,1413.1769519001245,None,1413.1769519001245,None,1413.1769519001245,None, ,1428.1808018649463,None,1428.1808018649463,None,down,2.7531559511553496,1428.1808018649463,None,1430.9883953678655,None,4,0.31975048466119915,1430.9883953678655,None,,,,,,,,,,,,,,,,,,,,,,,,,,,,,076057,2022_Apr_06_1652,palt,2021.1.2,52.126054965201405,
2,kötény,tisztás,,,,,,,,,3,0,3,0,,,,,0,9,9,1,,,,,,,,,1431.3601385725196,None,,,,,,,,,,,kötény,1432.3931343173608,None,None,,1432.3931343173608,None,1432.3931343173608,None,1432.3931343173608,None, ,1447.3832856350346,None,1447.3832856350346,None,down,16.398673054296523,1447.3832856350346,None,1463.832938768086,None,4,0.8511373864021152,1463.832938768086,None,,,,,,,,,,,,,,,,,,,,,,,,,,,,,076057,2022_Apr_06_1652,palt,2021.1.2,52.126054965201405,
,,,,,,,,,,,3,0,3,0,,,,,,,,,,,,,,,,,,,,,,,,,,,,,,,,,,,,,,,,,,,,,,,,,,,,,,,,,,,,,,,,,,,,,,,,,,,4,7.824200383503921,1464.7451447024941,None,1464.7451447024941,None,,,076057,2022_Apr_06_1652,palt,2021.1.2,52.126054965201405,
,,,,,,,,,,,,,,,,,,,,,,,,,,,,,,,,,,,,,,,,,,,,,,,,,,,,,,,,,,,,,,,,,,,,,,,,,,,,,,,,,,,,,,,,,,,,,,,1472.6161738333758,None,,,,,,
