itemno,wordA,wordB,enc_gyak.thisRepN,enc_gyak.thisTrialN,enc_gyak.thisN,enc_gyak.thisIndex,rec_gyak.thisRepN,rec_gyak.thisTrialN,rec_gyak.thisN,rec_gyak.thisIndex,repeat_task.thisRepN,repeat_task.thisTrialN,repeat_task.thisN,repeat_task.thisIndex,enc_loop.thisRepN,enc_loop.thisTrialN,enc_loop.thisN,enc_loop.thisIndex,test_loop.thisRepN,test_loop.thisTrialN,test_loop.thisN,test_loop.thisIndex,int.started,int.stopped,int_key.keys,int_key.rt,int_key.started,int_key.stopped,prepare_gyak_text.started,prepare_gyak_text.stopped,fix.started,fix.stopped,word1.started,word1.stopped,word2.started,word2.stopped,gykrec_inst.started,gykrec_inst.stopped,gyakrec_inst.keys,gyakrec_inst.rt,gyakrec_inst.started,gyakrec_inst.stopped,cueword,cueword1.started,cueword1.stopped,cue_resp.keys,cue_resp.rt,cue_resp.started,cue_resp.stopped,cue_cont_text.started,cue_cont_text.stopped,cue_space.started,cue_space.stopped,test_ansbox.text,test_ansbox.started,test_ansbox.stopped,ans_text.started,ans_text.stopped,ans_continue.keys,ans_continue.rt,ans_continue.started,ans_continue.stopped,feedback_text.started,feedback_text.stopped,feedback_cont.keys,feedback_cont.rt,feedback_cont.started,feedback_cont.stopped,main_prep.started,main_prep.stopped,main_prep_resp.keys,main_prep_resp.rt,main_prep_resp.started,main_prep_resp.stopped,preparation.started,preparation.stopped,break_text.started,break_text.stopped,key_resp.keys,key_resp.rt,key_resp.started,key_resp.stopped,test_instruction.started,test_instruction.stopped,test_i_key.keys,test_i_key.rt,test_i_key.started,test_i_key.stopped,rep_routine.keys,rep_routine.rt,rep_routine.started,rep_routine.stopped,encrep_textbox.started,encrep_textbox.stopped,Résztvevő kódja,date,expName,psychopyVersion,frameRate,
,,,,,,,,,,,,,,,,,,,,,,,22.506175988004543,None,4,63.3862172649242,22.506175988004543,None,,,,,,,,,,,,,,,,,,,,,,,,,,,,,,,,,,,,,,,,,,,,,,,,,,,,,,,,,,,,,,,,,,,124080,2022_Apr_14_1159,palt,2021.1.2,52.800428260342905,
2,lepke,szintetizátor,0,0,0,1,,,,,,,,,,,,,,,,,,,,,,,85.94796066131676,None,88.96932128199842,None,89.986345524434,None,89.986345524434,None,,,,,,,,,,,,,,,,,,,,,,,,,,,,,,,,,,,,,,,,,,,,,,,,,,,,,,,,,,,124080,2022_Apr_14_1159,palt,2021.1.2,52.800428260342905,
3,majoránna,szikla,0,1,1,2,,,,,,,,,,,,,,,,,,,,,,,,,95.96100587310502,None,96.98086930345744,None,96.98086930345744,None,,,,,,,,,,,,,,,,,,,,,,,,,,,,,,,,,,,,,,,,,,,,,,,,,,,,,,,,,,,124080,2022_Apr_14_1159,palt,2021.1.2,52.800428260342905,
1,sapka,beton,0,2,2,0,,,,,,,,,,,,,,,,,,,,,,,,,102.94404974131612,None,103.96330421889434,None,103.96330421889434,None,,,,,,,,,,,,,,,,,,,,,,,,,,,,,,,,,,,,,,,,,,,,,,,,,,,,,,,,,,,124080,2022_Apr_14_1159,palt,2021.1.2,52.800428260342905,
4,kard,harcsa,0,3,3,3,,,,,,,,,,,,,,,,,,,,,,,,,109.94189228193136,None,110.95857006195001,None,110.95857006195001,None,,,,,,,,,,,,,,,,,,,,,,,,,,,,,,,,,,,,,,,,,,,,,,,,,,,,,,,,,,,124080,2022_Apr_14_1159,palt,2021.1.2,52.800428260342905,
,,,,,,,,,,,,,,,,,,,,,,,,,,,,,,,,,,,,,116.9426523844013,None,4,24.950466138136107,116.9426523844013,None,,,,,,,,,,,,,,,,,,,,,,,,,,,,,,,,,,,,,,,,,,,,,,,,,,,,,124080,2022_Apr_14_1159,palt,2021.1.2,52.800428260342905,
2,lepke,szintetizátor,,,,,0,0,0,1,,,,,,,,,,,,,,,,,,,,,141.9369320225087,None,,,,,,,,,,,lepke,142.94821879756637,None,4,4.03560321155237,142.94821879756637,None,142.94821879756637,None,142.94821879756637,None, szintetizátor,147.02752821153263,None,147.02752821153263,None,down,4.684470086649526,147.02752821153263,None,151.76568970904918,None,4,7.03831924055703,151.76568970904918,None,,,,,,,,,,,,,,,,,,,,,,,,,,,124080,2022_Apr_14_1159,palt,2021.1.2,52.800428260342905,
4,kard,harcsa,,,,,0,1,1,3,,,,,,,,,,,,,,,,,,,,,158.845598123502,None,,,,,,,,,,,harcsa,159.8602646177169,None,4,3.284551695047412,159.8602646177169,None,159.8602646177169,None,159.8602646177169,None,kard,163.17471595684765,None,163.17471595684765,None,down,3.9770914947148412,163.17471595684765,None,167.17292921844637,None,4,5.393803050159477,167.17292921844637,None,,,,,,,,,,,,,,,,,,,,,,,,,,,124080,2022_Apr_14_1159,palt,2021.1.2,52.800428260342905,
1,sapka,beton,,,,,0,2,2,0,,,,,,,,,,,,,,,,,,,,,172.59320087730885,None,,,,,,,,,,,sapka,173.62346035713563,None,4,2.4952275890973397,173.62346035713563,None,173.62346035713563,None,173.62346035713563,None,beton,176.1628460426,None,176.1628460426,None,down,2.9246895211399533,176.1628460426,None,179.1239162941929,None,4,3.7618083347333595,179.1239162941929,None,,,,,,,,,,,,,,,,,,,,,,,,,,,124080,2022_Apr_14_1159,palt,2021.1.2,52.800428260342905,
3,majoránna,szikla,,,,,0,3,3,2,,,,,,,,,,,,,,,,,,,,,182.91212979221018,None,,,,,,,,,,,majoránna,183.93933579983423,None,4,4.225572533789091,183.93933579983423,None,183.93933579983423,None,183.93933579983423,None,szikla,188.20332460856298,None,188.20332460856298,None,down,2.148160887940321,188.20332460856298,None,190.3947973412578,None,4,29.172797973209526,190.3947973412578,None,,,,,,,,,,,,,,,,,,,,,,,,,,,124080,2022_Apr_14_1159,palt,2021.1.2,52.800428260342905,
,,,,,,,,,,,,,,,,,,,,,,,,,,,,,,,,,,,,,,,,,,,,,,,,,,,,,,,,,,,,,,,,,,,,,219.60582622891525,None,4,51.24416954140179,219.60582622891525,None,,,,,,,,,,,,,,,,,,,,,124080,2022_Apr_14_1159,palt,2021.1.2,52.800428260342905,
2,kötény,tisztás,,,,,,,,,0,0,0,0,0,0,0,1,,,,,,,,,,,,,274.9061755525763,None,275.90753683267394,None,275.90753683267394,None,,,,,,,,,,,,,,,,,,,,,,,,,,,,,,,,,,,,,,,270.8803345570923,None,,,,,,,,,,,,,,,,,,,124080,2022_Apr_14_1159,palt,2021.1.2,52.800428260342905,
8,szalvéta,puska,,,,,,,,,0,0,0,0,0,1,1,7,,,,,,,,,,,,,281.8934668509755,None,282.8980535903829,None,282.8980535903829,None,,,,,,,,,,,,,,,,,,,,,,,,,,,,,,,,,,,,,,,,,,,,,,,,,,,,,,,,,,,124080,2022_Apr_14_1159,palt,2021.1.2,52.800428260342905,
7,csavarhúzó,hering,,,,,,,,,0,0,0,0,0,2,2,6,,,,,,,,,,,,,288.89740047452506,None,289.8966982194688,None,289.8966982194688,None,,,,,,,,,,,,,,,,,,,,,,,,,,,,,,,,,,,,,,,,,,,,,,,,,,,,,,,,,,,124080,2022_Apr_14_1159,palt,2021.1.2,52.800428260342905,
10,málna,dominó,,,,,,,,,0,0,0,0,0,3,3,9,,,,,,,,,,,,,295.8917678167345,None,296.90208580327453,None,296.90208580327453,None,,,,,,,,,,,,,,,,,,,,,,,,,,,,,,,,,,,,,,,,,,,,,,,,,,,,,,,,,,,124080,2022_Apr_14_1159,palt,2021.1.2,52.800428260342905,
5,karton,hentes,,,,,,,,,0,0,0,0,0,4,4,4,,,,,,,,,,,,,302.8903402920696,None,303.90270253125345,None,303.90270253125345,None,,,,,,,,,,,,,,,,,,,,,,,,,,,,,,,,,,,,,,,,,,,,,,,,,,,,,,,,,,,124080,2022_Apr_14_1159,palt,2021.1.2,52.800428260342905,
1,bagoly,kirakó,,,,,,,,,0,0,0,0,0,5,5,0,,,,,,,,,,,,,309.89011792163365,None,310.89313873799983,None,310.89313873799983,None,,,,,,,,,,,,,,,,,,,,,,,,,,,,,,,,,,,,,,,,,,,,,,,,,,,,,,,,,,,124080,2022_Apr_14_1159,palt,2021.1.2,52.800428260342905,
3,fogó,limonádé,,,,,,,,,0,0,0,0,0,6,6,2,,,,,,,,,,,,,316.89017203694675,None,317.8961990523385,None,317.8961990523385,None,,,,,,,,,,,,,,,,,,,,,,,,,,,,,,,,,,,,,,,,,,,,,,,,,,,,,,,,,,,124080,2022_Apr_14_1159,palt,2021.1.2,52.800428260342905,
9,szilva,kecske,,,,,,,,,0,0,0,0,0,7,7,8,,,,,,,,,,,,,323.88878991937963,None,324.9027364310459,None,324.9027364310459,None,,,,,,,,,,,,,,,,,,,,,,,,,,,,,,,,,,,,,,,,,,,,,,,,,,,,,,,,,,,124080,2022_Apr_14_1159,palt,2021.1.2,52.800428260342905,
4,mocsár,ananász,,,,,,,,,0,0,0,0,0,8,8,3,,,,,,,,,,,,,330.89213822671445,None,331.89775533409556,None,331.89775533409556,None,,,,,,,,,,,,,,,,,,,,,,,,,,,,,,,,,,,,,,,,,,,,,,,,,,,,,,,,,,,124080,2022_Apr_14_1159,palt,2021.1.2,52.800428260342905,
6,menta,triatlon,,,,,,,,,0,0,0,0,0,9,9,5,,,,,,,,,,,,,337.8910724038142,None,338.9030822714558,None,338.9030822714558,None,,,,,,,,,,,,,,,,,,,,,,,,,,,,,,,,,,,,,,,,,,,,,,,,,,,,,,,,,,,124080,2022_Apr_14_1159,palt,2021.1.2,52.800428260342905,
1,bagoly,kirakó,,,,,,,,,0,0,0,0,,,,,0,0,0,0,,,,,,,,,362.50515837129205,None,,,,,,,,,,,bagoly,363.50682288373355,None,None,,363.50682288373355,None,363.50682288373355,None,363.50682288373355,None, ,378.50293031317415,None,378.50293031317415,None,down,2.1991023700102232,378.50293031317415,None,380.73032286320813,None,4,6.558661311515607,380.73032286320813,None,,,,,,,358.4811479662312,None,344.89142042124877,None,u,4.307226011704188,344.89142042124877,None,349.2408955649589,None,4,9.203602027264424,349.2408955649589,None,,,,,,,124080,2022_Apr_14_1159,palt,2021.1.2,52.800428260342905,
2,kötény,tisztás,,,,,,,,,0,0,0,0,,,,,0,1,1,1,,,,,,,,,387.313748773071,None,,,,,,,,,,,kötény,388.3401337208343,None,4,5.757687173667364,388.3401337208343,None,388.3401337208343,None,388.3401337208343,None,tiszta,394.138388408639,None,394.138388408639,None,down,2.307399242883548,394.138388408639,None,396.48150127078407,None,4,4.1773486357415095,396.48150127078407,None,,,,,,,,,,,,,,,,,,,,,,,,,,,124080,2022_Apr_14_1159,palt,2021.1.2,52.800428260342905,
3,fogó,limonádé,,,,,,,,,0,0,0,0,,,,,0,2,2,2,,,,,,,,,400.6979186752578,None,,,,,,,,,,,fogó,401.71979121444747,None,4,11.76595282141352,401.71979121444747,None,401.71979121444747,None,401.71979121444747,None, ,413.53330859786365,None,413.53330859786365,None,down,1.584403406654019,413.53330859786365,None,415.13968562113587,None,4,3.0950703436974436,415.13968562113587,None,,,,,,,,,,,,,,,,,,,,,,,,,,,124080,2022_Apr_14_1159,palt,2021.1.2,52.800428260342905,
10,málna,dominó,,,,,,,,,0,0,0,0,,,,,0,3,3,9,,,,,,,,,418.26803968212334,None,,,,,,,,,,,dominó,419.28563151328126,None,4,4.117198842053767,419.28563151328126,None,419.28563151328126,None,419.28563151328126,None,menta,423.4279927323805,None,423.4279927323805,None,down,2.217602032236755,423.4279927323805,None,425.6880500946427,None,4,5.61582294467371,425.6880500946427,None,,,,,,,,,,,,,,,,,,,,,,,,,,,124080,2022_Apr_14_1159,palt,2021.1.2,52.800428260342905,
6,menta,triatlon,,,,,,,,,0,0,0,0,,,,,0,4,4,5,,,,,,,,,431.3429775738623,None,,,,,,,,,,,triatlon,432.35258895129664,None,4,4.532263923494611,432.35258895129664,None,432.35258895129664,None,432.35258895129664,None, menta,436.92415738728596,None,436.92415738728596,None,down,2.0654269698425196,436.92415738728596,None,439.0350126082776,None,4,7.712732587009668,439.0350126082776,None,,,,,,,,,,,,,,,,,,,,,,,,,,,124080,2022_Apr_14_1159,palt,2021.1.2,52.800428260342905,
8,szalvéta,puska,,,,,,,,,0,0,0,0,,,,,0,5,5,7,,,,,,,,,446.7764154265169,None,,,,,,,,,,,szalvéta,447.80584669322707,None,4,10.032561246713158,447.80584669322707,None,447.80584669322707,None,447.80584669322707,None, ,457.8726340100402,None,457.8726340100402,None,down,2.6846741075860336,457.8726340100402,None,460.6056551747606,None,4,1.4307401730911806,460.6056551747606,None,,,,,,,,,,,,,,,,,,,,,,,,,,,124080,2022_Apr_14_1159,palt,2021.1.2,52.800428260342905,
9,szilva,kecske,,,,,,,,,0,0,0,0,,,,,0,6,6,8,,,,,,,,,462.0588662655209,None,,,,,,,,,,,kecske,463.07930723694153,None,4,8.812990847683977,463.07930723694153,None,463.07930723694153,None,463.07930723694153,None, ,471.92449420841876,None,471.92449420841876,None,down,1.4326811712235212,471.92449420841876,None,473.40284590574447,None,4,1.2854592150542885,473.40284590574447,None,,,,,,,,,,,,,,,,,,,,,,,,,,,124080,2022_Apr_14_1159,palt,2021.1.2,52.800428260342905,
5,karton,hentes,,,,,,,,,0,0,0,0,,,,,0,7,7,4,,,,,,,,,474.71938223950565,None,,,,,,,,,,,karton,475.7363626298611,None,4,10.067814263806213,475.7363626298611,None,475.7363626298611,None,475.7363626298611,None, ,485.83875160326716,None,485.83875160326716,None,down,1.854369158449117,485.83875160326716,None,487.72706132696476,None,4,1.5821299414383247,487.72706132696476,None,,,,,,,,,,,,,,,,,,,,,,,,,,,124080,2022_Apr_14_1159,palt,2021.1.2,52.800428260342905,
4,mocsár,ananász,,,,,,,,,0,0,0,0,,,,,0,8,8,3,,,,,,,,,489.35387123544933,None,,,,,,,,,,,ananász,490.37069954309845,None,4,12.912297736213077,490.37069954309845,None,490.37069954309845,None,490.37069954309845,None, ,503.31076807674253,None,503.31076807674253,None,down,1.3425953455734998,503.31076807674253,None,504.6860907470691,None,4,2.1139376168721355,504.6860907470691,None,,,,,,,,,,,,,,,,,,,,,,,,,,,124080,2022_Apr_14_1159,palt,2021.1.2,52.800428260342905,
7,csavarhúzó,hering,,,,,,,,,0,0,0,0,,,,,0,9,9,6,,,,,,,,,506.83063803822733,None,,,,,,,,,,,hering,507.8561897967593,None,4,10.446624883858021,507.8561897967593,None,507.8561897967593,None,507.8561897967593,None,csiga,518.3556010594475,None,518.3556010594475,None,down,2.265657986223232,518.3556010594475,None,520.6531413628836,None,4,3.1167531682294793,520.6531413628836,None,,,,,,,,,,,,,,,,,,,,,,,,,,,124080,2022_Apr_14_1159,palt,2021.1.2,52.800428260342905,
,,,,,,,,,,,0,0,0,0,,,,,,,,,,,,,,,,,,,,,,,,,,,,,,,,,,,,,,,,,,,,,,,,,,,,,,,,,,,,,,,,,,,,,,,,,,,4,24.64360649336595,523.8700952554354,None,523.8700952554354,None,124080,2022_Apr_14_1159,palt,2021.1.2,52.800428260342905,
1,bagoly,kirakó,,,,,,,,,1,0,1,0,0,0,0,0,,,,,,,,,,,,,552.5734372803709,None,553.573231393355,None,553.573231393355,None,,,,,,,,,,,,,,,,,,,,,,,,,,,,,,,,,,,,,,,548.5424152100459,None,,,,,,,,,,,,,,,,,,,124080,2022_Apr_14_1159,palt,2021.1.2,52.800428260342905,
4,mocsár,ananász,,,,,,,,,1,0,1,0,0,1,1,3,,,,,,,,,,,,,559.5566419395036,None,560.5739436006988,None,560.5739436006988,None,,,,,,,,,,,,,,,,,,,,,,,,,,,,,,,,,,,,,,,,,,,,,,,,,,,,,,,,,,,124080,2022_Apr_14_1159,palt,2021.1.2,52.800428260342905,
8,szalvéta,puska,,,,,,,,,1,0,1,0,0,2,2,7,,,,,,,,,,,,,566.5530442041345,None,567.5621315338067,None,567.5621315338067,None,,,,,,,,,,,,,,,,,,,,,,,,,,,,,,,,,,,,,,,,,,,,,,,,,,,,,,,,,,,124080,2022_Apr_14_1159,palt,2021.1.2,52.800428260342905,
9,szilva,kecske,,,,,,,,,1,0,1,0,0,3,3,8,,,,,,,,,,,,,573.5554843693972,None,574.5727502646623,None,574.5727502646623,None,,,,,,,,,,,,,,,,,,,,,,,,,,,,,,,,,,,,,,,,,,,,,,,,,,,,,,,,,,,124080,2022_Apr_14_1159,palt,2021.1.2,52.800428260342905,
10,málna,dominó,,,,,,,,,1,0,1,0,0,4,4,9,,,,,,,,,,,,,580.5564827036578,None,581.5642777969479,None,581.5642777969479,None,,,,,,,,,,,,,,,,,,,,,,,,,,,,,,,,,,,,,,,,,,,,,,,,,,,,,,,,,,,124080,2022_Apr_14_1159,palt,2021.1.2,52.800428260342905,
2,kötény,tisztás,,,,,,,,,1,0,1,0,0,5,5,1,,,,,,,,,,,,,587.5552480036858,None,588.5652779972297,None,588.5652779972297,None,,,,,,,,,,,,,,,,,,,,,,,,,,,,,,,,,,,,,,,,,,,,,,,,,,,,,,,,,,,124080,2022_Apr_14_1159,palt,2021.1.2,52.800428260342905,
7,csavarhúzó,hering,,,,,,,,,1,0,1,0,0,6,6,6,,,,,,,,,,,,,594.5549394841655,None,595.5742235074867,None,595.5742235074867,None,,,,,,,,,,,,,,,,,,,,,,,,,,,,,,,,,,,,,,,,,,,,,,,,,,,,,,,,,,,124080,2022_Apr_14_1159,palt,2021.1.2,52.800428260342905,
3,fogó,limonádé,,,,,,,,,1,0,1,0,0,7,7,2,,,,,,,,,,,,,601.555173050845,None,602.5671309802565,None,602.5671309802565,None,,,,,,,,,,,,,,,,,,,,,,,,,,,,,,,,,,,,,,,,,,,,,,,,,,,,,,,,,,,124080,2022_Apr_14_1159,palt,2021.1.2,52.800428260342905,
5,karton,hentes,,,,,,,,,1,0,1,0,0,8,8,4,,,,,,,,,,,,,608.5528041063226,None,609.5697876067716,None,609.5697876067716,None,,,,,,,,,,,,,,,,,,,,,,,,,,,,,,,,,,,,,,,,,,,,,,,,,,,,,,,,,,,124080,2022_Apr_14_1159,palt,2021.1.2,52.800428260342905,
6,menta,triatlon,,,,,,,,,1,0,1,0,0,9,9,5,,,,,,,,,,,,,615.5540123706451,None,616.5621103853337,None,616.5621103853337,None,,,,,,,,,,,,,,,,,,,,,,,,,,,,,,,,,,,,,,,,,,,,,,,,,,,,,,,,,,,124080,2022_Apr_14_1159,palt,2021.1.2,52.800428260342905,
5,karton,hentes,,,,,,,,,1,0,1,0,,,,,0,0,0,4,,,,,,,,,637.662872789253,None,,,,,,,,,,,karton,638.6507590450346,None,4,2.3233999594231136,638.6507590450346,None,638.6507590450346,None,638.6507590450346,None,hentes,641.021857921849,None,641.021857921849,None,down,2.286176087509375,641.021857921849,None,643.3423082856461,None,4,2.2745444050524384,643.3423082856461,None,,,,,,,633.6319841411314,None,622.5546035960433,None,u,5.633391450275667,622.5546035960433,None,628.2233199061011,None,4,5.37191993673332,628.2233199061011,None,,,,,,,124080,2022_Apr_14_1159,palt,2021.1.2,52.800428260342905,
7,csavarhúzó,hering,,,,,,,,,1,0,1,0,,,,,0,1,1,6,,,,,,,,,645.6462500575581,None,,,,,,,,,,,hering,646.6685726246214,None,4,2.3315405821194872,646.6685726246214,None,646.6685726246214,None,646.6685726246214,None,csavarhúzó,649.039419585315,None,649.039419585315,None,down,3.180736751994118,649.039419585315,None,652.2563740998157,None,4,1.3793984242947772,652.2563740998157,None,,,,,,,,,,,,,,,,,,,,,,,,,,,124080,2022_Apr_14_1159,palt,2021.1.2,52.800428260342905,
1,bagoly,kirakó,,,,,,,,,1,0,1,0,,,,,0,2,2,0,,,,,,,,,653.6685956391739,None,,,,,,,,,,,bagoly,654.6861072304309,None,4,6.589507040567696,654.6861072304309,None,654.6861072304309,None,654.6861072304309,None,karton,661.3182058223174,None,661.3182058223174,None,down,2.213396588107571,661.3182058223174,None,663.5815953194979,None,4,4.332111903000623,663.5815953194979,None,,,,,,,,,,,,,,,,,,,,,,,,,,,124080,2022_Apr_14_1159,palt,2021.1.2,52.800428260342905,
10,málna,dominó,,,,,,,,,1,0,1,0,,,,,0,3,3,9,,,,,,,,,667.9421864950564,None,,,,,,,,,,,dominó,668.9696008777828,None,4,10.228992372867651,668.9696008777828,None,668.9696008777828,None,668.9696008777828,None, ,679.2319419684936,None,679.2319419684936,None,down,3.131582008325495,679.2319419684936,None,682.3868881082162,None,4,1.6746397599345073,682.3868881082162,None,,,,,,,,,,,,,,,,,,,,,,,,,,,124080,2022_Apr_14_1159,palt,2021.1.2,52.800428260342905,
4,mocsár,ananász,,,,,,,,,1,0,1,0,,,,,0,4,4,3,,,,,,,,,684.0848764491384,None,,,,,,,,,,,ananász,685.1014830084168,None,4,14.415966070315335,685.1014830084168,None,685.1014830084168,None,685.1014830084168,None, ,699.5448973613093,None,699.5448973613093,None,down,1.4745023568393663,699.5448973613093,None,701.0455227975035,None,4,1.3208739560795948,701.0455227975035,None,,,,,,,,,,,,,,,,,,,,,,,,,,,124080,2022_Apr_14_1159,palt,2021.1.2,52.800428260342905,
3,fogó,limonádé,,,,,,,,,1,0,1,0,,,,,0,5,5,2,,,,,,,,,702.3956672294298,None,,,,,,,,,,,fogó,703.4147071117768,None,4,4.020636595087126,703.4147071117768,None,703.4147071117768,None,703.4147071117768,None,limonádé,707.4589096821728,None,707.4589096821728,None,down,2.440457604068797,707.4589096821728,None,709.9335622556391,None,4,1.4827959952526726,709.9335622556391,None,,,,,,,,,,,,,,,,,,,,,,,,,,,124080,2022_Apr_14_1159,palt,2021.1.2,52.800428260342905,
8,szalvéta,puska,,,,,,,,,1,0,1,0,,,,,0,6,6,7,,,,,,,,,711.4400716437376,None,,,,,,,,,,,szalvéta,712.4548162007704,None,4,9.198448943148833,712.4548162007704,None,712.4548162007704,None,712.4548162007704,None,,721.6971638599643,None,721.6971638599643,None,down,1.850010387657676,721.6971638599643,None,723.5793507779599,None,4,1.385882309754379,723.5793507779599,None,,,,,,,,,,,,,,,,,,,,,,,,,,,124080,2022_Apr_14_1159,palt,2021.1.2,52.800428260342905,
9,szilva,kecske,,,,,,,,,1,0,1,0,,,,,0,7,7,8,,,,,,,,,725.0011693884153,None,,,,,,,,,,,kecske,726.0184545661905,None,4,13.659521993831731,726.0184545661905,None,726.0184545661905,None,726.0184545661905,None, ,739.7175124621135,None,739.7175124621135,None,down,1.317547419341281,739.7175124621135,None,741.0627451517503,None,4,2.0835257433354855,741.0627451517503,None,,,,,,,,,,,,,,,,,,,,,,,,,,,124080,2022_Apr_14_1159,palt,2021.1.2,52.800428260342905,
6,menta,triatlon,,,,,,,,,1,0,1,0,,,,,0,8,8,5,,,,,,,,,743.1751998845721,None,,,,,,,,,,,triatlon,744.200207690883,None,4,3.362909425923135,744.200207690883,None,744.200207690883,None,744.200207690883,None, menta,747.590618270624,None,747.590618270624,None,down,1.7004204200347885,747.590618270624,None,749.3320689839893,None,4,1.8141036326414905,749.3320689839893,None,,,,,,,,,,,,,,,,,,,,,,,,,,,124080,2022_Apr_14_1159,palt,2021.1.2,52.800428260342905,
2,kötény,tisztás,,,,,,,,,1,0,1,0,,,,,0,9,9,1,,,,,,,,,751.1821782720508,None,,,,,,,,,,,kötény,752.2019263185794,None,None,,752.2019263185794,None,752.2019263185794,None,752.2019263185794,None,tisztaság,767.1955267161829,None,767.1955267161829,None,down,2.959318035049364,767.1955267161829,None,770.2102162248921,None,4,2.869639629323501,770.2102162248921,None,,,,,,,,,,,,,,,,,,,,,,,,,,,124080,2022_Apr_14_1159,palt,2021.1.2,52.800428260342905,
,,,,,,,,,,,1,0,1,0,,,,,,,,,,,,,,,,,,,,,,,,,,,,,,,,,,,,,,,,,,,,,,,,,,,,,,,,,,,,,,,,,,,,,,,,,,,4,18.49101436982164,773.1277015671367,None,773.1277015671367,None,124080,2022_Apr_14_1159,palt,2021.1.2,52.800428260342905,
1,bagoly,kirakó,,,,,,,,,2,0,2,0,0,0,0,0,,,,,,,,,,,,,795.6773756933981,None,796.6686276730034,None,796.6686276730034,None,,,,,,,,,,,,,,,,,,,,,,,,,,,,,,,,,,,,,,,791.6496618104284,None,,,,,,,,,,,,,,,,,,,124080,2022_Apr_14_1159,palt,2021.1.2,52.800428260342905,
7,csavarhúzó,hering,,,,,,,,,2,0,2,0,0,1,1,6,,,,,,,,,,,,,802.6548994886107,None,803.6681030032341,None,803.6681030032341,None,,,,,,,,,,,,,,,,,,,,,,,,,,,,,,,,,,,,,,,,,,,,,,,,,,,,,,,,,,,124080,2022_Apr_14_1159,palt,2021.1.2,52.800428260342905,
2,kötény,tisztás,,,,,,,,,2,0,2,0,0,2,2,1,,,,,,,,,,,,,809.6528785615228,None,810.6596280474332,None,810.6596280474332,None,,,,,,,,,,,,,,,,,,,,,,,,,,,,,,,,,,,,,,,,,,,,,,,,,,,,,,,,,,,124080,2022_Apr_14_1159,palt,2021.1.2,52.800428260342905,
6,menta,triatlon,,,,,,,,,2,0,2,0,0,3,3,5,,,,,,,,,,,,,816.6535357204848,None,817.6612720333505,None,817.6612720333505,None,,,,,,,,,,,,,,,,,,,,,,,,,,,,,,,,,,,,,,,,,,,,,,,,,,,,,,,,,,,124080,2022_Apr_14_1159,palt,2021.1.2,52.800428260342905,
8,szalvéta,puska,,,,,,,,,2,0,2,0,0,4,4,7,,,,,,,,,,,,,823.6537101957365,None,824.6658363802126,None,824.6658363802126,None,,,,,,,,,,,,,,,,,,,,,,,,,,,,,,,,,,,,,,,,,,,,,,,,,,,,,,,,,,,124080,2022_Apr_14_1159,palt,2021.1.2,52.800428260342905,
10,málna,dominó,,,,,,,,,2,0,2,0,0,5,5,9,,,,,,,,,,,,,830.6531687316019,None,831.6652532410226,None,831.6652532410226,None,,,,,,,,,,,,,,,,,,,,,,,,,,,,,,,,,,,,,,,,,,,,,,,,,,,,,,,,,,,124080,2022_Apr_14_1159,palt,2021.1.2,52.800428260342905,
4,mocsár,ananász,,,,,,,,,2,0,2,0,0,6,6,3,,,,,,,,,,,,,837.6510056740372,None,838.6692027259269,None,838.6692027259269,None,,,,,,,,,,,,,,,,,,,,,,,,,,,,,,,,,,,,,,,,,,,,,,,,,,,,,,,,,,,124080,2022_Apr_14_1159,palt,2021.1.2,52.800428260342905,
9,szilva,kecske,,,,,,,,,2,0,2,0,0,7,7,8,,,,,,,,,,,,,844.6507606001105,None,845.6694991161348,None,845.6694991161348,None,,,,,,,,,,,,,,,,,,,,,,,,,,,,,,,,,,,,,,,,,,,,,,,,,,,,,,,,,,,124080,2022_Apr_14_1159,palt,2021.1.2,52.800428260342905,
5,karton,hentes,,,,,,,,,2,0,2,0,0,8,8,4,,,,,,,,,,,,,851.6531366977724,None,852.6636216954212,None,852.6636216954212,None,,,,,,,,,,,,,,,,,,,,,,,,,,,,,,,,,,,,,,,,,,,,,,,,,,,,,,,,,,,124080,2022_Apr_14_1159,palt,2021.1.2,52.800428260342905,
3,fogó,limonádé,,,,,,,,,2,0,2,0,0,9,9,2,,,,,,,,,,,,,858.6511061294586,None,859.6548170716269,None,859.6548170716269,None,,,,,,,,,,,,,,,,,,,,,,,,,,,,,,,,,,,,,,,,,,,,,,,,,,,,,,,,,,,124080,2022_Apr_14_1159,palt,2021.1.2,52.800428260342905,
10,málna,dominó,,,,,,,,,2,0,2,0,,,,,0,0,0,9,,,,,,,,,877.3569713587058,None,,,,,,,,,,,dominó,878.3461038218229,None,4,11.524644549470395,878.3461038218229,None,878.3461038218229,None,878.3461038218229,None,mocsár,889.9182830766076,None,889.9182830766076,None,down,2.427585001452826,889.9182830766076,None,892.3735433961265,None,4,4.5781770354369655,892.3735433961265,None,,,,,,,873.3346820694278,None,865.6527488713618,None,u,2.565344552800525,865.6527488713618,None,868.2599786773208,None,4,5.038076965662185,868.2599786773208,None,,,,,,,124080,2022_Apr_14_1159,palt,2021.1.2,52.800428260342905,
7,csavarhúzó,hering,,,,,,,,,2,0,2,0,,,,,0,1,1,6,,,,,,,,,896.9740069218096,None,,,,,,,,,,,hering,897.988845092128,None,4,3.1270263697369955,897.988845092128,None,897.988845092128,None,897.988845092128,None,csavarhúzó,901.1430445027072,None,901.1430445027072,None,down,3.5548172582057305,901.1430445027072,None,904.7289699803223,None,4,1.3768385211587884,904.7289699803223,None,,,,,,,,,,,,,,,,,,,,,,,,,,,124080,2022_Apr_14_1159,palt,2021.1.2,52.800428260342905,
6,menta,triatlon,,,,,,,,,2,0,2,0,,,,,0,2,2,5,,,,,,,,,906.1504635878955,None,,,,,,,,,,,triatlon,907.1654631711426,None,4,2.0403292823466472,907.1654631711426,None,907.1654631711426,None,907.1654631711426,None,menta,909.2457665652037,None,909.2457665652037,None,down,1.5959346336894669,909.2457665652037,None,910.882382852782,None,4,0.9092585704638623,910.882382852782,None,,,,,,,,,,,,,,,,,,,,,,,,,,,124080,2022_Apr_14_1159,palt,2021.1.2,52.800428260342905,
2,kötény,tisztás,,,,,,,,,2,0,2,0,,,,,0,3,3,1,,,,,,,,,911.8266786010936,None,,,,,,,,,,,kötény,912.847549695929,None,4,3.7370711050461978,912.847549695929,None,912.847549695929,None,912.847549695929,None,tisztás,916.6120684614871,None,916.6120684614871,None,down,1.7974609965458512,916.6120684614871,None,918.4460339695215,None,4,1.2016010046354495,918.4460339695215,None,,,,,,,,,,,,,,,,,,,,,,,,,,,124080,2022_Apr_14_1159,palt,2021.1.2,52.800428260342905,
8,szalvéta,puska,,,,,,,,,2,0,2,0,,,,,0,4,4,7,,,,,,,,,919.6798733950709,None,,,,,,,,,,,szalvéta,920.6894987678388,None,None,,920.6894987678388,None,920.6894987678388,None,920.6894987678388,None, ,935.6972207743092,None,935.6972207743092,None,down,1.7362746146973222,935.6972207743092,None,937.4750049450668,None,4,2.136476023180876,937.4750049450668,None,,,,,,,,,,,,,,,,,,,,,,,,,,,124080,2022_Apr_14_1159,palt,2021.1.2,52.800428260342905,
5,karton,hentes,,,,,,,,,2,0,2,0,,,,,0,5,5,4,,,,,,,,,939.6444480798091,None,,,,,,,,,,,karton,940.6633977699676,None,4,2.589896733057685,940.6633977699676,None,940.6633977699676,None,940.6633977699676,None,hentes,943.2972296069493,None,943.2972296069493,None,down,2.45652332121972,943.2972296069493,None,945.7997394378763,None,4,1.2919412344926968,945.7997394378763,None,,,,,,,,,,,,,,,,,,,,,,,,,,,124080,2022_Apr_14_1159,palt,2021.1.2,52.800428260342905,
3,fogó,limonádé,,,,,,,,,2,0,2,0,,,,,0,6,6,2,,,,,,,,,947.120393200661,None,,,,,,,,,,,fogó,948.1246141951415,None,None,,948.1246141951415,None,948.1246141951415,None,948.1246141951415,None, ,963.1355165648856,None,963.1355165648856,None,down,1.9140788764925674,963.1355165648856,None,965.0928923578467,None,4,2.077274491544813,965.0928923578467,None,,,,,,,,,,,,,,,,,,,,,,,,,,,124080,2022_Apr_14_1159,palt,2021.1.2,52.800428260342905,
4,mocsár,ananász,,,,,,,,,2,0,2,0,,,,,0,7,7,3,,,,,,,,,967.2116254001157,None,,,,,,,,,,,ananász,968.2290219186107,None,4,5.272138139640447,968.2290219186107,None,968.2290219186107,None,968.2290219186107,None,mocsár,973.5287464280846,None,973.5287464280846,None,down,1.7924543969566002,973.5287464280846,None,975.3716083071777,None,4,1.2114580780616961,975.3716083071777,None,,,,,,,,,,,,,,,,,,,,,,,,,,,124080,2022_Apr_14_1159,palt,2021.1.2,52.800428260342905,
9,szilva,kecske,,,,,,,,,2,0,2,0,,,,,0,8,8,8,,,,,,,,,976.6268151956028,None,,,,,,,,,,,kecske,977.6494851580937,None,4,13.496567409660202,977.6494851580937,None,977.6494851580937,None,977.6494851580937,None, ,991.1772183235735,None,991.1772183235735,None,down,1.2797683989047073,991.1772183235735,None,992.506756017101,None,4,2.2443872466683388,992.506756017101,None,,,,,,,,,,,,,,,,,,,,,,,,,,,124080,2022_Apr_14_1159,palt,2021.1.2,52.800428260342905,
1,bagoly,kirakó,,,,,,,,,2,0,2,0,,,,,0,9,9,0,,,,,,,,,994.7717932322412,None,,,,,,,,,,,bagoly,995.7912784774089,None,4,8.497682060697116,995.7912784774089,None,995.7912784774089,None,995.7912784774089,None,kirakó,1004.3243155656965,None,1004.3243155656965,None,down,2.4046273569692858,1004.3243155656965,None,1006.7787383418763,None,4,1.4310561567544937,1006.7787383418763,None,,,,,,,,,,,,,,,,,,,,,,,,,,,124080,2022_Apr_14_1159,palt,2021.1.2,52.800428260342905,
,,,,,,,,,,,2,0,2,0,,,,,,,,,,,,,,,,,,,,,,,,,,,,,,,,,,,,,,,,,,,,,,,,,,,,,,,,,,,,,,,,,,,,,,,,,,,4,9.278403697768226,1008.2854203391471,None,1008.2854203391471,None,124080,2022_Apr_14_1159,palt,2021.1.2,52.800428260342905,
4,mocsár,ananász,,,,,,,,,3,0,3,0,0,0,0,3,,,,,,,,,,,,,1021.6193398180767,None,1022.6149717170047,None,1022.6149717170047,None,,,,,,,,,,,,,,,,,,,,,,,,,,,,,,,,,,,,,,,1017.5965700221132,None,,,,,,,,,,,,,,,,,,,124080,2022_Apr_14_1159,palt,2021.1.2,52.800428260342905,
1,bagoly,kirakó,,,,,,,,,3,0,3,0,0,1,1,0,,,,,,,,,,,,,1028.5993694011122,None,1029.6106412478257,None,1029.6106412478257,None,,,,,,,,,,,,,,,,,,,,,,,,,,,,,,,,,,,,,,,,,,,,,,,,,,,,,,,,,,,124080,2022_Apr_14_1159,palt,2021.1.2,52.800428260342905,
3,fogó,limonádé,,,,,,,,,3,0,3,0,0,2,2,2,,,,,,,,,,,,,1035.6039318818948,None,1036.6212951225461,None,1036.6212951225461,None,,,,,,,,,,,,,,,,,,,,,,,,,,,,,,,,,,,,,,,,,,,,,,,,,,,,,,,,,,,124080,2022_Apr_14_1159,palt,2021.1.2,52.800428260342905,
6,menta,triatlon,,,,,,,,,3,0,3,0,0,3,3,5,,,,,,,,,,,,,1042.6010696794256,None,1043.6195351307979,None,1043.6195351307979,None,,,,,,,,,,,,,,,,,,,,,,,,,,,,,,,,,,,,,,,,,,,,,,,,,,,,,,,,,,,124080,2022_Apr_14_1159,palt,2021.1.2,52.800428260342905,
7,csavarhúzó,hering,,,,,,,,,3,0,3,0,0,4,4,6,,,,,,,,,,,,,1049.6007281931234,None,1050.6193180475384,None,1050.6193180475384,None,,,,,,,,,,,,,,,,,,,,,,,,,,,,,,,,,,,,,,,,,,,,,,,,,,,,,,,,,,,124080,2022_Apr_14_1159,palt,2021.1.2,52.800428260342905,
10,málna,dominó,,,,,,,,,3,0,3,0,0,5,5,9,,,,,,,,,,,,,1056.6028629489592,None,1057.613587111351,None,1057.613587111351,None,,,,,,,,,,,,,,,,,,,,,,,,,,,,,,,,,,,,,,,,,,,,,,,,,,,,,,,,,,,124080,2022_Apr_14_1159,palt,2021.1.2,52.800428260342905,
8,szalvéta,puska,,,,,,,,,3,0,3,0,0,6,6,7,,,,,,,,,,,,,1063.6118843450095,None,1064.6144881002256,None,1064.6144881002256,None,,,,,,,,,,,,,,,,,,,,,,,,,,,,,,,,,,,,,,,,,,,,,,,,,,,,,,,,,,,124080,2022_Apr_14_1159,palt,2021.1.2,52.800428260342905,
2,kötény,tisztás,,,,,,,,,3,0,3,0,0,7,7,1,,,,,,,,,,,,,1070.6027640485554,None,1071.6127019838896,None,1071.6127019838896,None,,,,,,,,,,,,,,,,,,,,,,,,,,,,,,,,,,,,,,,,,,,,,,,,,,,,,,,,,,,124080,2022_Apr_14_1159,palt,2021.1.2,52.800428260342905,
5,karton,hentes,,,,,,,,,3,0,3,0,0,8,8,4,,,,,,,,,,,,,1077.599688494869,None,1078.6136098149,None,1078.6136098149,None,,,,,,,,,,,,,,,,,,,,,,,,,,,,,,,,,,,,,,,,,,,,,,,,,,,,,,,,,,,124080,2022_Apr_14_1159,palt,2021.1.2,52.800428260342905,
9,szilva,kecske,,,,,,,,,3,0,3,0,0,9,9,8,,,,,,,,,,,,,1084.6006208955077,None,1085.6187451716396,None,1085.6187451716396,None,,,,,,,,,,,,,,,,,,,,,,,,,,,,,,,,,,,,,,,,,,,,,,,,,,,,,,,,,,,124080,2022_Apr_14_1159,palt,2021.1.2,52.800428260342905,
6,menta,triatlon,,,,,,,,,3,0,3,0,,,,,0,0,0,5,,,,,,,,,1101.0978650575853,None,,,,,,,,,,,triatlon,1102.098745208932,None,4,1.8383634657948278,1102.098745208932,None,1102.098745208932,None,1102.098745208932,None,menta,1103.9776777439401,None,1103.9776777439401,None,down,2.0144475448760204,1103.9776777439401,None,1106.0216560779372,None,4,1.2675022610346787,1106.0216560779372,None,,,,,,,1097.0771933185752,None,1091.6011623596423,None,u,1.9592135365819559,1091.6011623596423,None,1093.5902973107877,None,4,3.4507743465946987,1093.5902973107877,None,,,,,,,124080,2022_Apr_14_1159,palt,2021.1.2,52.800428260342905,
7,csavarhúzó,hering,,,,,,,,,3,0,3,0,,,,,0,1,1,6,,,,,,,,,1107.3213482426363,None,,,,,,,,,,,hering,1108.328710724425,None,4,1.7514206825289875,1108.328710724425,None,1108.328710724425,None,1108.328710724425,None,csavarhúzó,1110.1112635739264,None,1110.1112635739264,None,down,3.208792432327755,1110.1112635739264,None,1113.3450134293525,None,4,0.9349341099150479,1113.3450134293525,None,,,,,,,,,,,,,,,,,,,,,,,,,,,124080,2022_Apr_14_1159,palt,2021.1.2,52.800428260342905,
3,fogó,limonádé,,,,,,,,,3,0,3,0,,,,,0,2,2,2,,,,,,,,,1114.3251537310425,None,,,,,,,,,,,fogó,1115.34901702957,None,4,3.4119985469733365,1115.34901702957,None,1115.34901702957,None,1115.34901702957,None,limonádé,1118.7954817445134,None,1118.7954817445134,None,down,2.156717327714432,1118.7954817445134,None,1120.9781815761817,None,4,1.223755627637729,1120.9781815761817,None,,,,,,,,,,,,,,,,,,,,,,,,,,,124080,2022_Apr_14_1159,palt,2021.1.2,52.800428260342905,
5,karton,hentes,,,,,,,,,3,0,3,0,,,,,0,3,3,4,,,,,,,,,1122.2312533977674,None,,,,,,,,,,,karton,1123.2455979991355,None,4,1.7175444958847947,1123.2455979991355,None,1123.2455979991355,None,1123.2455979991355,None,hentes,1124.9999825836276,None,1124.9999825836276,None,down,1.5358893385273404,1124.9999825836276,None,1126.5655479517882,None,4,1.4424122865311801,1126.5655479517882,None,,,,,,,,,,,,,,,,,,,,,,,,,,,124080,2022_Apr_14_1159,palt,2021.1.2,52.800428260342905,
2,kötény,tisztás,,,,,,,,,3,0,3,0,,,,,0,4,4,1,,,,,,,,,1128.0422982712043,None,,,,,,,,,,,kötény,1129.0606066638138,None,4,2.025340895401314,1129.0606066638138,None,1129.0606066638138,None,1129.0606066638138,None,tisztás,1131.1153495911858,None,1131.1153495911858,None,down,1.9165324150817469,1131.1153495911858,None,1133.0557963099563,None,4,1.1200598005088978,1133.0557963099563,None,,,,,,,,,,,,,,,,,,,,,,,,,,,124080,2022_Apr_14_1159,palt,2021.1.2,52.800428260342905,
1,bagoly,kirakó,,,,,,,,,3,0,3,0,,,,,0,5,5,0,,,,,,,,,1134.1995051248232,None,,,,,,,,,,,bagoly,1135.2110372848692,None,4,2.3557114670984447,1135.2110372848692,None,1135.2110372848692,None,1135.2110372848692,None,kirakó,1137.6173540348536,None,1137.6173540348536,None,down,2.7743294988176785,1137.6173540348536,None,1140.4314607775887,None,4,0.8922290409100242,1140.4314607775887,None,,,,,,,,,,,,,,,,,,,,,,,,,,,124080,2022_Apr_14_1159,palt,2021.1.2,52.800428260342905,
8,szalvéta,puska,,,,,,,,,3,0,3,0,,,,,0,6,6,7,,,,,,,,,1141.3647378393216,None,,,,,,,,,,,szalvéta,1142.3784821960726,None,4,2.97531159844948,1142.3784821960726,None,1142.3784821960726,None,1142.3784821960726,None,puska,1145.400693733478,None,1145.400693733478,None,down,1.5990935373702087,1145.400693733478,None,1147.0295270570787,None,4,0.987240293121431,1147.0295270570787,None,,,,,,,,,,,,,,,,,,,,,,,,,,,124080,2022_Apr_14_1159,palt,2021.1.2,52.800428260342905,
4,mocsár,ananász,,,,,,,,,3,0,3,0,,,,,0,7,7,3,,,,,,,,,1148.0412116108346,None,,,,,,,,,,,ananász,1149.0555316425744,None,4,3.3020384057308547,1149.0555316425744,None,1149.0555316425744,None,1149.0555316425744,None,mocsár,1152.3975071500754,None,1152.3975071500754,None,down,1.8660670855897479,1152.3975071500754,None,1154.3029723613872,None,4,1.1147207338362932,1154.3029723613872,None,,,,,,,,,,,,,,,,,,,,,,,,,,,124080,2022_Apr_14_1159,palt,2021.1.2,52.800428260342905,
10,málna,dominó,,,,,,,,,3,0,3,0,,,,,0,8,8,9,,,,,,,,,1155.4481475768262,None,,,,,,,,,,,dominó,1156.45932736533,None,4,10.545213966979645,1156.45932736533,None,1156.45932736533,None,1156.45932736533,None,málna,1167.0486176336417,None,1167.0486176336417,None,down,1.7113010192406364,1167.0486176336417,None,1168.795485476614,None,4,3.2190413752105087,1168.795485476614,None,,,,,,,,,,,,,,,,,,,,,,,,,,,124080,2022_Apr_14_1159,palt,2021.1.2,52.800428260342905,
9,szilva,kecske,,,,,,,,,3,0,3,0,,,,,0,9,9,8,,,,,,,,,1172.0355531394016,None,,,,,,,,,,,kecske,1173.0659261369728,None,4,7.9135520296986215,1173.0659261369728,None,1173.0659261369728,None,1173.0659261369728,None,szilva,1181.0265087287407,None,1181.0265087287407,None,down,1.908821293793153,1181.0265087287407,None,1182.9740980470087,None,4,1.0033878052490763,1182.9740980470087,None,,,,,,,,,,,,,,,,,,,,,,,,,,,124080,2022_Apr_14_1159,palt,2021.1.2,52.800428260342905,
,,,,,,,,,,,3,0,3,0,,,,,,,,,,,,,,,,,,,,,,,,,,,,,,,,,,,,,,,,,,,,,,,,,,,,,,,,,,,,,,,,,,,,,,,,,,,4,108.40799432474887,1184.0436318715801,None,1184.0436318715801,None,124080,2022_Apr_14_1159,palt,2021.1.2,52.800428260342905,
