itemno,wordA,wordB,enc_gyak.thisRepN,enc_gyak.thisTrialN,enc_gyak.thisN,enc_gyak.thisIndex,rec_gyak.thisRepN,rec_gyak.thisTrialN,rec_gyak.thisN,rec_gyak.thisIndex,repeat_task.thisRepN,repeat_task.thisTrialN,repeat_task.thisN,repeat_task.thisIndex,enc_loop.thisRepN,enc_loop.thisTrialN,enc_loop.thisN,enc_loop.thisIndex,test_loop.thisRepN,test_loop.thisTrialN,test_loop.thisN,test_loop.thisIndex,int.started,int_key.started,int_key.keys,int_key.rt,prepare_gyak_text.started,fix.started,word1.started,word2.started,gykrec_inst.started,gyakrec_inst.started,gyakrec_inst.keys,gyakrec_inst.rt,cueword1.started,cue_resp.started,cue_cont_text.started,cue_space.started,cueword,cue_resp.keys,cue_resp.rt,test_ansbox.started,ans_text.started,ans_continue.started,test_ansbox.text,ans_continue.keys,ans_continue.rt,feedback_text.started,feedback_cont.started,feedback_cont.keys,feedback_cont.rt,fix.stopped,main_prep.started,main_prep_resp.started,main_prep_resp.keys,main_prep_resp.rt,preparation.started,break_text.started,key_resp.started,key_resp.keys,key_resp.rt,test_instruction.started,test_i_key.started,test_i_key.keys,test_i_key.rt,rep_routine.started,encrep_textbox.started,rep_routine.keys,rep_routine.rt,preparation.stopped,end_text.started,Résztvevő kódja,date,expName,psychopyVersion,frameRate,
,,,,,,,,,,,,,,,,,,,,,,,22.75988844782114,22.75988844782114,4,116.49122634716332,,,,,,,,,,,,,,,,,,,,,,,,,,,,,,,,,,,,,,,,,,,,,,150196,2022-09-06_11h45.29.689,palt,2022.2.2,50.62718561994603,
1,sapka,beton,0,0,0,0,,,,,,,,,,,,,,,,,,,,,139.30035069026053,142.3441606061533,143.32642017956823,143.32642017956823,,,,,,,,,,,,,,,,,,,,,,,,,,,,,,,,,,,,,,,,,,150196,2022-09-06_11h45.29.689,palt,2022.2.2,50.62718561994603,
2,lepke,szintetizátor,0,1,1,1,,,,,,,,,,,,,,,,,,,,,,149.30643584113568,150.32752953935415,150.32752953935415,,,,,,,,,,,,,,,,,,,,,,,,,,,,,,,,,,,,,,,,,,150196,2022-09-06_11h45.29.689,palt,2022.2.2,50.62718561994603,
3,majoránna,szikla,0,2,2,2,,,,,,,,,,,,,,,,,,,,,,156.31190084572881,157.32981263659894,157.32981263659894,,,,,,,,,,,,,,,,,,,,,,,,,,,,,,,,,,,,,,,,,,150196,2022-09-06_11h45.29.689,palt,2022.2.2,50.62718561994603,
4,kard,harcsa,0,3,3,3,,,,,,,,,,,,,,,,,,,,,,163.3195637324825,164.31769738253206,164.31769738253206,,,,,,,,,,,,,,,,,,,,,,,,,,,,,,,,,,,,,,,,,,150196,2022-09-06_11h45.29.689,palt,2022.2.2,50.62718561994603,
,,,,,,,,,,,,,,,,,,,,,,,,,,,,,,,170.30279644485563,170.30279644485563,4,42.60441028140485,,,,,,,,,,,,,,,,,,,,,,,,,,,,,,,,,,,,,,150196,2022-09-06_11h45.29.689,palt,2022.2.2,50.62718561994603,
2,lepke,szintetizátor,,,,,0,0,0,1,,,,,,,,,,,,,,,,,,212.95531180221587,,,,,,,213.97917221207172,213.97917221207172,213.97917221207172,213.97917221207172,szintetizátor,4,6.4956740494817495,220.5188426328823,220.5188426328823,220.5188426328823,lepke,down,6.660176214762032,227.21447311714292,227.21447311714292,4,3.0690059354528785,,,,,,,,,,,,,,,,,,,,,150196,2022-09-06_11h45.29.689,palt,2022.2.2,50.62718561994603,
4,kard,harcsa,,,,,0,1,1,3,,,,,,,,,,,,,,,,,,230.31274273991585,,,,,,,231.3261580010876,231.3261580010876,231.3261580010876,231.3261580010876,kard,None,,246.3408505646512,246.3408505646512,246.3408505646512, ,down,6.342204835265875,252.72697557415813,252.72697557415813,4,3.402853569947183,231.3261580010876,,,,,,,,,,,,,,,,,,,,150196,2022-09-06_11h45.29.689,palt,2022.2.2,50.62718561994603,
1,sapka,beton,,,,,0,2,2,0,,,,,,,,,,,,,,,,,,256.14925538841635,,,,,,,257.15794708393514,257.15794708393514,257.15794708393514,257.15794708393514,sapka,4,3.6863309191539884,260.89356334879994,260.89356334879994,260.89356334879994, beton,down,2.221961366944015,263.1635890509933,263.1635890509933,4,4.366043475456536,,,,,,,,,,,,,,,,,,,,,150196,2022-09-06_11h45.29.689,palt,2022.2.2,50.62718561994603,
3,majoránna,szikla,,,,,0,3,3,2,,,,,,,,,,,,,,,,,,267.5513381352648,,,,,,,268.57142728287727,268.57142728287727,268.57142728287727,268.57142728287727,szikla,4,8.485544259659946,277.08740647975355,277.08740647975355,277.08740647975355,majoránna,down,2.8430859157815576,279.95134553778917,279.95134553778917,4,3.3534026201814413,,,,,,,,,,,,,,,,,,,,,150196,2022-09-06_11h45.29.689,palt,2022.2.2,50.62718561994603,
,,,,,,,,,,,,,,,,,,,,,,,,,,,,,,,,,,,,,,,,,,,,,,,,,,,,,283.33817622065544,283.33817622065544,4,102.42478667292744,,,,,,,,,,,,,,,,150196,2022-09-06_11h45.29.689,palt,2022.2.2,50.62718561994603,
6,menta,triatlon,,,,,,,,,0,0,0,0,0,0,0,5,,,,,,,,,,389.807050390169,390.81882913503796,390.81882913503796,,,,,,,,,,,,,,,,,,,,,,,,,,,385.7932659648359,,,,,,,,,,,,,,,150196,2022-09-06_11h45.29.689,palt,2022.2.2,50.62718561994603,
1,bagoly,kirakó,,,,,,,,,0,0,0,0,0,1,1,0,,,,,,,,,,396.79102640785277,397.81995124649256,397.81995124649256,,,,,,,,,,,,,,,,,,,,,,,,,,,,,,,,,,,,,,,,,,150196,2022-09-06_11h45.29.689,palt,2022.2.2,50.62718561994603,
7,csavarhúzó,hering,,,,,,,,,0,0,0,0,0,2,2,6,,,,,,,,,,403.79766141809523,404.81415657512844,404.81415657512844,,,,,,,,,,,,,,,,,,,,,,,,,,,,,,,,,,,,,,,,,,150196,2022-09-06_11h45.29.689,palt,2022.2.2,50.62718561994603,
5,karton,hentes,,,,,,,,,0,0,0,0,0,3,3,4,,,,,,,,,,410.8002875559032,411.8073912533,411.8073912533,,,,,,,,,,,,,,,,,,,,,,,,,,,,,,,,,,,,,,,,,,150196,2022-09-06_11h45.29.689,palt,2022.2.2,50.62718561994603,
2,kötény,tisztás,,,,,,,,,0,0,0,0,0,4,4,1,,,,,,,,,,417.7993106851354,418.8067092159763,418.8067092159763,,,,,,,,,,,,,,,,,,,,,,,,,,,,,,,,,,,,,,,,,,150196,2022-09-06_11h45.29.689,palt,2022.2.2,50.62718561994603,
3,fogó,limonádé,,,,,,,,,0,0,0,0,0,5,5,2,,,,,,,,,,424.8017427548766,425.8057814836502,425.8057814836502,,,,,,,,,,,,,,,,,,,,,,,,,,,,,,,,,,,,,,,,,,150196,2022-09-06_11h45.29.689,palt,2022.2.2,50.62718561994603,
10,málna,dominó,,,,,,,,,0,0,0,0,0,6,6,9,,,,,,,,,,431.806699574925,432.8192592570558,432.8192592570558,,,,,,,,,,,,,,,,,,,,,,,,,,,,,,,,,,,,,,,,,,150196,2022-09-06_11h45.29.689,palt,2022.2.2,50.62718561994603,
4,mocsár,ananász,,,,,,,,,0,0,0,0,0,7,7,3,,,,,,,,,,438.7997128162533,439.8065294539556,439.8065294539556,,,,,,,,,,,,,,,,,,,,,,,,,,,,,,,,,,,,,,,,,,150196,2022-09-06_11h45.29.689,palt,2022.2.2,50.62718561994603,
9,szilva,kecske,,,,,,,,,0,0,0,0,0,8,8,8,,,,,,,,,,445.80357520468533,446.80806707032025,446.80806707032025,,,,,,,,,,,,,,,,,,,,,,,,,,,,,,,,,,,,,,,,,,150196,2022-09-06_11h45.29.689,palt,2022.2.2,50.62718561994603,
8,szalvéta,puska,,,,,,,,,0,0,0,0,0,9,9,7,,,,,,,,,,452.79993394203484,453.8077386468649,453.8077386468649,,,,,,,,,,,,,,,,,,,,,,,,,,,,,,,,,,,,,,,,,,150196,2022-09-06_11h45.29.689,palt,2022.2.2,50.62718561994603,
10,málna,dominó,,,,,,,,,0,0,0,0,,,,,0,0,0,9,,,,,,486.26646747719496,,,,,,,487.27313669770956,487.27313669770956,487.27313669770956,487.27313669770956,dominó,None,,502.2503467714414,502.2503467714414,502.2503467714414, ,down,2.813794712536037,505.1020026318729,505.1020026318729,4,3.8528568036854267,,,,,,482.2427221387625,459.80108995269984,459.80108995269984,u,15.327183537185192,475.17349491547793,475.17349491547793,4,7.0395828653126955,,,,,,,150196,2022-09-06_11h45.29.689,palt,2022.2.2,50.62718561994603,
7,csavarhúzó,hering,,,,,,,,,0,0,0,0,,,,,0,1,1,6,,,,,,508.9793071895838,,,,,,,509.9979370944202,509.9979370944202,509.9979370944202,509.9979370944202,hering,None,,524.9936420954764,524.9936420954764,524.9936420954764, ,down,1.9896613620221615,527.0153677584603,527.0153677584603,4,12.993313199840486,,,,,,,,,,,,,,,,,,,,,150196,2022-09-06_11h45.29.689,palt,2022.2.2,50.62718561994603,
4,mocsár,ananász,,,,,,,,,0,0,0,0,,,,,0,2,2,3,,,,,,540.0273676291108,,,,,,,541.0545206638053,541.0545206638053,541.0545206638053,541.0545206638053,mocsár,None,,556.0338807245716,556.0338807245716,556.0338807245716, ,down,1.4296194016933441,557.4826856516302,557.4826856516302,4,1.9302383046597242,,,,,,,,,,,,,,,,,,,,,150196,2022-09-06_11h45.29.689,palt,2022.2.2,50.62718561994603,
8,szalvéta,puska,,,,,,,,,0,0,0,0,,,,,0,3,3,7,,,,,,559.4397832527757,,,,,,,560.4556918516755,560.4556918516755,560.4556918516755,560.4556918516755,szalvéta,None,,575.4491541869938,575.4491541869938,575.4491541869938, ,down,2.7820232324302197,578.2759425975382,578.2759425975382,4,4.463046368211508,,,,,,,,,,,,,,,,,,,,,150196,2022-09-06_11h45.29.689,palt,2022.2.2,50.62718561994603,
1,bagoly,kirakó,,,,,,,,,0,0,0,0,,,,,0,4,4,0,,,,,,582.7596334228292,,,,,,,583.7889501294121,583.7889501294121,583.7889501294121,583.7889501294121,bagoly,None,,598.7840645294636,598.7840645294636,598.7840645294636, ,down,1.1426656227558851,599.9488652618602,599.9488652618602,4,2.5828575380146503,,,,,,,,,,,,,,,,,,,,,150196,2022-09-06_11h45.29.689,palt,2022.2.2,50.62718561994603,
3,fogó,limonádé,,,,,,,,,0,0,0,0,,,,,0,5,5,2,,,,,,602.5624699871987,,,,,,,603.5897107264027,603.5897107264027,603.5897107264027,603.5897107264027,limonádé,None,,618.5691233472899,618.5691233472899,618.5691233472899, ,down,1.0856357580050826,619.6720338072628,619.6720338072628,4,2.325717764906585,,,,,,,,,,,,,,,,,,,,,150196,2022-09-06_11h45.29.689,palt,2022.2.2,50.62718561994603,
5,karton,hentes,,,,,,,,,0,0,0,0,,,,,0,6,6,4,,,,,,622.0284919170663,,,,,,,623.0533969979733,623.0533969979733,623.0533969979733,623.0533969979733,karton,None,,638.0430050306022,638.0430050306022,638.0430050306022, ,down,2.1395627120509744,640.2220137780532,640.2220137780532,4,0.9995694039389491,,,,,,,,,,,,,,,,,,,,,150196,2022-09-06_11h45.29.689,palt,2022.2.2,50.62718561994603,
6,menta,triatlon,,,,,,,,,0,0,0,0,,,,,0,7,7,5,,,,,,641.2431852277368,,,,,,,642.2706937426701,642.2706937426701,642.2706937426701,642.2706937426701,triatlon,None,,657.2676381049678,657.2676381049678,657.2676381049678, madár,down,4.354334706440568,661.6468525528908,661.6468525528908,4,3.3052830891683698,,,,,,,,,,,,,,,,,,,,,150196,2022-09-06_11h45.29.689,palt,2022.2.2,50.62718561994603,
2,kötény,tisztás,,,,,,,,,0,0,0,0,,,,,0,8,8,1,,,,,,664.9765355000272,,,,,,,666.0028929812834,666.0028929812834,666.0028929812834,666.0028929812834,tisztás,4,10.690193307586014,676.7180232554674,676.7180232554674,676.7180232554674,karton,down,2.3607812467962503,679.1070773229003,679.1070773229003,4,4.496859294362366,,,,,,,,,,,,,,,,,,,,,150196,2022-09-06_11h45.29.689,palt,2022.2.2,50.62718561994603,
9,szilva,kecske,,,,,,,,,0,0,0,0,,,,,0,9,9,8,,,,,,683.6320673087612,,,,,,,684.6557579096407,684.6557579096407,684.6557579096407,684.6557579096407,szilva,4,13.440289719961584,698.1386755723506,698.1386755723506,698.1386755723506,karton,down,2.2996090883389115,700.4627171754837,700.4627171754837,4,4.484825213439763,,,,,,,,,,,,,,,,,,,,,150196,2022-09-06_11h45.29.689,palt,2022.2.2,50.62718561994603,
,,,,,,,,,,,0,0,0,0,,,,,,,,,,,,,,,,,,,,,,,,,,,,,,,,,,,,,,,,,,,,,,,,,,,,705.0237173466012,705.0237173466012,4,82.14798569772393,,,150196,2022-09-06_11h45.29.689,palt,2022.2.2,50.62718561994603,
4,mocsár,ananász,,,,,,,,,1,0,1,0,0,0,0,3,,,,,,,,,,791.2195913493633,792.2087717484683,792.2087717484683,,,,,,,,,,,,,,,,,,,,,,,,,,,787.1981676742435,,,,,,,,,,,,,,,150196,2022-09-06_11h45.29.689,palt,2022.2.2,50.62718561994603,
10,málna,dominó,,,,,,,,,1,0,1,0,0,1,1,9,,,,,,,,,,798.2024648496881,799.2299867384136,799.2299867384136,,,,,,,,,,,,,,,,,,,,,,,,,,,,,,,,,,,,,,,,,,150196,2022-09-06_11h45.29.689,palt,2022.2.2,50.62718561994603,
7,csavarhúzó,hering,,,,,,,,,1,0,1,0,0,2,2,6,,,,,,,,,,805.1974710198119,806.224418791011,806.224418791011,,,,,,,,,,,,,,,,,,,,,,,,,,,,,,,,,,,,,,,,,,150196,2022-09-06_11h45.29.689,palt,2022.2.2,50.62718561994603,
9,szilva,kecske,,,,,,,,,1,0,1,0,0,3,3,8,,,,,,,,,,812.2212934875861,813.2152767581865,813.2152767581865,,,,,,,,,,,,,,,,,,,,,,,,,,,,,,,,,,,,,,,,,,150196,2022-09-06_11h45.29.689,palt,2022.2.2,50.62718561994603,
6,menta,triatlon,,,,,,,,,1,0,1,0,0,4,4,5,,,,,,,,,,819.2061253944412,820.2135404096916,820.2135404096916,,,,,,,,,,,,,,,,,,,,,,,,,,,,,,,,,,,,,,,,,,150196,2022-09-06_11h45.29.689,palt,2022.2.2,50.62718561994603,
5,karton,hentes,,,,,,,,,1,0,1,0,0,5,5,4,,,,,,,,,,826.2134558157995,827.2174388747662,827.2174388747662,,,,,,,,,,,,,,,,,,,,,,,,,,,,,,,,,,,,,,,,,,150196,2022-09-06_11h45.29.689,palt,2022.2.2,50.62718561994603,
1,bagoly,kirakó,,,,,,,,,1,0,1,0,0,6,6,0,,,,,,,,,,833.2062090551481,834.2143829260021,834.2143829260021,,,,,,,,,,,,,,,,,,,,,,,,,,,,,,,,,,,,,,,,,,150196,2022-09-06_11h45.29.689,palt,2022.2.2,50.62718561994603,
8,szalvéta,puska,,,,,,,,,1,0,1,0,0,7,7,7,,,,,,,,,,840.210598600097,841.220041686669,841.220041686669,,,,,,,,,,,,,,,,,,,,,,,,,,,,,,,,,,,,,,,,,,150196,2022-09-06_11h45.29.689,palt,2022.2.2,50.62718561994603,
2,kötény,tisztás,,,,,,,,,1,0,1,0,0,8,8,1,,,,,,,,,,847.2104141730815,848.2191487876698,848.2191487876698,,,,,,,,,,,,,,,,,,,,,,,,,,,,,,,,,,,,,,,,,,150196,2022-09-06_11h45.29.689,palt,2022.2.2,50.62718561994603,
3,fogó,limonádé,,,,,,,,,1,0,1,0,0,9,9,2,,,,,,,,,,854.2018098700792,855.2096064891666,855.2096064891666,,,,,,,,,,,,,,,,,,,,,,,,,,,,,,,,,,,,,,,,,,150196,2022-09-06_11h45.29.689,palt,2022.2.2,50.62718561994603,
7,csavarhúzó,hering,,,,,,,,,1,0,1,0,,,,,0,0,0,6,,,,,,888.7368857935071,,,,,,,889.7440877677873,889.7440877677873,889.7440877677873,889.7440877677873,hering,None,,904.753921167925,904.753921167925,904.753921167925, ,down,2.2255167923867702,907.0100837601349,907.0100837601349,4,3.647689308039844,,,,,,884.721542914398,861.2136716535315,861.2136716535315,u,13.8303984105587,875.0723752304912,875.0723752304912,4,9.625175244174898,,,,,888.7368857935071,,150196,2022-09-06_11h45.29.689,palt,2022.2.2,50.62718561994603,
4,mocsár,ananász,,,,,,,,,1,0,1,0,,,,,0,1,1,3,,,,,,910.6902768202126,,,,,,,911.7168327225372,911.7168327225372,911.7168327225372,911.7168327225372,mocsár,4,3.8759418753907084,915.6436896175146,915.6436896175146,915.6436896175146,ananász,down,3.8795794062316418,919.5750452196226,919.5750452196226,4,2.344890685752034,,,,,,,,,,,,,,,,,,,,,150196,2022-09-06_11h45.29.689,palt,2022.2.2,50.62718561994603,
3,fogó,limonádé,,,,,,,,,1,0,1,0,,,,,0,2,2,2,,,,,,921.9524701368064,,,,,,,922.980290280655,922.980290280655,922.980290280655,922.980290280655,limonádé,None,,937.9687326606363,937.9687326606363,937.9687326606363, ,down,2.1298086177557707,940.1436600722373,940.1436600722373,4,2.9687620447948575,,,,,,,,,,,,,,,,,,,,,150196,2022-09-06_11h45.29.689,palt,2022.2.2,50.62718561994603,
2,kötény,tisztás,,,,,,,,,1,0,1,0,,,,,0,3,3,1,,,,,,943.1384917674586,,,,,,,944.1625422034413,944.1625422034413,944.1625422034413,944.1625422034413,tisztás,4,7.361031295731664,951.5598733946681,951.5598733946681,951.5598733946681,kötény,down,2.3626771420240402,953.9569197054952,953.9569197054952,4,2.1438629971817136,,,,,,,,,,,,,,,,,,,,,150196,2022-09-06_11h45.29.689,palt,2022.2.2,50.62718561994603,
8,szalvéta,puska,,,,,,,,,1,0,1,0,,,,,0,4,4,7,,,,,,956.121616249904,,,,,,,957.1350131612271,957.1350131612271,957.1350131612271,957.1350131612271,szalvéta,None,,972.1352703636512,972.1352703636512,972.1352703636512, ,down,1.7711470276117325,973.9630527514964,973.9630527514964,4,0.6428152164444327,957.1350131612271,,,,,,,,,,,,,,,,,,,,150196,2022-09-06_11h45.29.689,palt,2022.2.2,50.62718561994603,
10,málna,dominó,,,,,,,,,1,0,1,0,,,,,0,5,5,9,,,,,,974.6341731334105,,,,,,,975.6607228154317,975.6607228154317,975.6607228154317,975.6607228154317,dominó,4,5.572291406802833,981.2650402691215,981.2650402691215,981.2650402691215, menta,down,2.4169676611199975,983.703564257361,983.703564257361,4,6.087624643929303,,,,,,,,,,,,,,,,,,,,,150196,2022-09-06_11h45.29.689,palt,2022.2.2,50.62718561994603,
9,szilva,kecske,,,,,,,,,1,0,1,0,,,,,0,6,6,8,,,,,,989.8236743034795,,,,,,,990.8522716527805,990.8522716527805,990.8522716527805,990.8522716527805,szilva,4,11.578012369573116,1002.4644037634134,1002.4644037634134,1002.4644037634134,keszeg,down,2.0336211835965514,1004.5294526163489,1004.5294526163489,4,11.15513884369284,,,,,,,,,,,,,,,,,,,,,150196,2022-09-06_11h45.29.689,palt,2022.2.2,50.62718561994603,
6,menta,triatlon,,,,,,,,,1,0,1,0,,,,,0,7,7,5,,,,,,1015.708767705597,,,,,,,1016.7307965988293,1016.7307965988293,1016.7307965988293,1016.7307965988293,triatlon,None,,1031.7360886838287,1031.7360886838287,1031.7360886838287, menta,down,2.089579318650067,1033.8537582634017,1033.8537582634017,4,15.819944241084158,,,,,,,,,,,,,,,,,,,,,150196,2022-09-06_11h45.29.689,palt,2022.2.2,50.62718561994603,
5,karton,hentes,,,,,,,,,1,0,1,0,,,,,0,8,8,4,,,,,,1049.7070074090734,,,,,,,1050.7263663131744,1050.7263663131744,1050.7263663131744,1050.7263663131744,karton,4,4.424518897198141,1055.1788557320833,1055.1788557320833,1055.1788557320833,hering,down,2.2783670416101813,1057.5038110716268,1057.5038110716268,4,7.351811200380325,,,,,,,,,,,,,,,,,,,,,150196,2022-09-06_11h45.29.689,palt,2022.2.2,50.62718561994603,
1,bagoly,kirakó,,,,,,,,,1,0,1,0,,,,,0,9,9,0,,,,,,1064.8875130303204,,,,,,,1065.9017123384401,1065.9017123384401,1065.9017123384401,1065.9017123384401,bagoly,None,,1080.8945962013677,1080.8945962013677,1080.8945962013677, ,down,2.0824417220428586,1083.0079589644447,1083.0079589644447,4,0.9776350567117333,1065.9017123384401,,,,,,,,,,,,,,,,,,,,150196,2022-09-06_11h45.29.689,palt,2022.2.2,50.62718561994603,
,,,,,,,,,,,1,0,1,0,,,,,,,,,,,,,,,,,,,,,,,,,,,,,,,,,,,,,,,,,,,,,,,,,,,,1084.0487614478916,1084.0487614478916,4,53.80496275331825,,,150196,2022-09-06_11h45.29.689,palt,2022.2.2,50.62718561994603,
10,málna,dominó,,,,,,,,,2,0,2,0,0,0,0,9,,,,,,,,,,1141.8999657267705,1142.8992951968685,1142.8992951968685,,,,,,,,,,,,,,,,,,,,,,,,,,,1137.878497888334,,,,,,,,,,,,,,,150196,2022-09-06_11h45.29.689,palt,2022.2.2,50.62718561994603,
5,karton,hentes,,,,,,,,,2,0,2,0,0,1,1,4,,,,,,,,,,1148.8787961434573,1149.891804607585,1149.891804607585,,,,,,,,,,,,,,,,,,,,,,1149.891804607585,,,,,,,,,,,,,,,,,,,,150196,2022-09-06_11h45.29.689,palt,2022.2.2,50.62718561994603,
8,szalvéta,puska,,,,,,,,,2,0,2,0,0,2,2,7,,,,,,,,,,1155.8902968494222,1156.901331666857,1156.901331666857,,,,,,,,,,,,,,,,,,,,,,,,,,,,,,,,,,,,,,,,,,150196,2022-09-06_11h45.29.689,palt,2022.2.2,50.62718561994603,
3,fogó,limonádé,,,,,,,,,2,0,2,0,0,3,3,2,,,,,,,,,,1162.8900959389284,1163.899600916542,1163.899600916542,,,,,,,,,,,,,,,,,,,,,,,,,,,,,,,,,,,,,,,,,,150196,2022-09-06_11h45.29.689,palt,2022.2.2,50.62718561994603,
2,kötény,tisztás,,,,,,,,,2,0,2,0,0,4,4,1,,,,,,,,,,1169.8825272871181,1170.9092421140522,1170.9092421140522,,,,,,,,,,,,,,,,,,,,,,,,,,,,,,,,,,,,,,,,,,150196,2022-09-06_11h45.29.689,palt,2022.2.2,50.62718561994603,
1,bagoly,kirakó,,,,,,,,,2,0,2,0,0,5,5,0,,,,,,,,,,1176.8810052219778,1177.8965175990015,1177.8965175990015,,,,,,,,,,,,,,,,,,,,,,,,,,,,,,,,,,,,,,,,,,150196,2022-09-06_11h45.29.689,palt,2022.2.2,50.62718561994603,
4,mocsár,ananász,,,,,,,,,2,0,2,0,0,6,6,3,,,,,,,,,,1183.8900132114068,1184.896595039405,1184.896595039405,,,,,,,,,,,,,,,,,,,,,,,,,,,,,,,,,,,,,,,,,,150196,2022-09-06_11h45.29.689,palt,2022.2.2,50.62718561994603,
6,menta,triatlon,,,,,,,,,2,0,2,0,0,7,7,5,,,,,,,,,,1190.8895970843732,1191.8967937724665,1191.8967937724665,,,,,,,,,,,,,,,,,,,,,,,,,,,,,,,,,,,,,,,,,,150196,2022-09-06_11h45.29.689,palt,2022.2.2,50.62718561994603,
7,csavarhúzó,hering,,,,,,,,,2,0,2,0,0,8,8,6,,,,,,,,,,1197.893816197291,1198.9056904213503,1198.9056904213503,,,,,,,,,,,,,,,,,,,,,,,,,,,,,,,,,,,,,,,,,,150196,2022-09-06_11h45.29.689,palt,2022.2.2,50.62718561994603,
9,szilva,kecske,,,,,,,,,2,0,2,0,0,9,9,8,,,,,,,,,,1204.8891560770571,1205.8960066149011,1205.8960066149011,,,,,,,,,,,,,,,,,,,,,,,,,,,,,,,,,,,,,,,,,,150196,2022-09-06_11h45.29.689,palt,2022.2.2,50.62718561994603,
2,kötény,tisztás,,,,,,,,,2,0,2,0,,,,,0,0,0,1,,,,,,1225.5233839480206,,,,,,,1226.5246491217986,1226.5246491217986,1226.5246491217986,1226.5246491217986,tisztás,4,6.913217547349632,1233.4710639650002,1233.4710639650002,1233.4710639650002,kötény,down,1.6162126623094082,1235.1485326094553,1235.1485326094553,4,2.4650203259661794,,,,,,1221.5013438584283,1211.8915131948888,1211.8915131948888,u,3.916027800180018,1215.838220383972,1215.838220383972,4,5.64166262652725,,,,,,,150196,2022-09-06_11h45.29.689,palt,2022.2.2,50.62718561994603,
3,fogó,limonádé,,,,,,,,,2,0,2,0,,,,,0,1,1,2,,,,,,1237.6389769380912,,,,,,,1238.6526652621105,1238.6526652621105,1238.6526652621105,1238.6526652621105,limonádé,4,11.874845889396966,1250.5593254016712,1250.5593254016712,1250.5593254016712,fogó,down,1.8877812661230564,1252.4819445237517,1252.4819445237517,4,3.2435044683516026,1238.6526652621105,,,,,,,,,,,,,,,,,,,,150196,2022-09-06_11h45.29.689,palt,2022.2.2,50.62718561994603,
5,karton,hentes,,,,,,,,,2,0,2,0,,,,,0,2,2,4,,,,,,1255.7593560051173,,,,,,,1256.7873817235231,1256.7873817235231,1256.7873817235231,1256.7873817235231,karton,None,,1271.7856798972934,1271.7856798972934,1271.7856798972934, ,down,1.8615121124312282,1273.6843026988208,1273.6843026988208,4,0.8630142724141479,,,,,,,,,,,,,,,,,,,,,150196,2022-09-06_11h45.29.689,palt,2022.2.2,50.62718561994603,
9,szilva,kecske,,,,,,,,,2,0,2,0,,,,,0,3,3,8,,,,,,1274.5802573757246,,,,,,,1275.589160244912,1275.589160244912,1275.589160244912,1275.589160244912,szilva,4,5.270227070897818,1280.894011198543,1280.894011198543,1280.894011198543, keszeg,down,2.816931522451341,1283.734020180069,1283.734020180069,4,10.870343138463795,,,,,,,,,,,,,,,,,,,,,150196,2022-09-06_11h45.29.689,palt,2022.2.2,50.62718561994603,
10,málna,dominó,,,,,,,,,2,0,2,0,,,,,0,4,4,9,,,,,,1294.6366419019178,,,,,,,1295.6614328436553,1295.6614328436553,1295.6614328436553,1295.6614328436553,dominó,4,3.926729841157794,1299.6086886469275,1299.6086886469275,1299.6086886469275,menta,down,2.5176488272845745,1302.157345908694,1302.157345908694,4,10.33031537104398,,,,,,,,,,,,,,,,,,,,,150196,2022-09-06_11h45.29.689,palt,2022.2.2,50.62718561994603,
1,bagoly,kirakó,,,,,,,,,2,0,2,0,,,,,0,5,5,0,,,,,,1312.5139473918825,,,,,,,1313.5417423443869,1313.5417423443869,1313.5417423443869,1313.5417423443869,bagoly,4,11.094779657199979,1324.676583209075,1324.676583209075,1324.676583209075, karton,down,3.8013112265616655,1328.5137943774462,1328.5137943774462,4,7.41691230237484,,,,,,,,,,,,,,,,,,,,,150196,2022-09-06_11h45.29.689,palt,2022.2.2,50.62718561994603,
6,menta,triatlon,,,,,,,,,2,0,2,0,,,,,0,6,6,5,,,,,,1335.9575572684407,,,,,,,1336.9707641545683,1336.9707641545683,1336.9707641545683,1336.9707641545683,triatlon,None,,1351.9877538122237,1351.9877538122237,1351.9877538122237, málna,down,7.818246457725763,1359.8381105987355,1359.8381105987355,4,15.378475022502244,1336.9707641545683,,,,,,,,,,,,,,,,,,,,150196,2022-09-06_11h45.29.689,palt,2022.2.2,50.62718561994603,
4,mocsár,ananász,,,,,,,,,2,0,2,0,,,,,0,7,7,3,,,,,,1375.23609832488,,,,,,,1376.242627903819,1376.242627903819,1376.242627903819,1376.242627903819,mocsár,4,5.149454891681671,1381.4240659233183,1381.4240659233183,1381.4240659233183,ananász,down,2.0292297722771764,1383.4945741817355,1383.4945741817355,4,2.4337302846834064,,,,,,,,,,,,,,,,,,,,,150196,2022-09-06_11h45.29.689,palt,2022.2.2,50.62718561994603,
8,szalvéta,puska,,,,,,,,,2,0,2,0,,,,,0,8,8,7,,,,,,1385.9500178517774,,,,,,,1386.965117833577,1386.965117833577,1386.965117833577,1386.965117833577,szalvéta,None,,1401.9620693493634,1401.9620693493634,1401.9620693493634, ,down,16.19462266098708,1418.2021236754954,1418.2021236754954,4,2.5864586802199483,,,,,,,,,,,,,,,,,,,,,150196,2022-09-06_11h45.29.689,palt,2022.2.2,50.62718561994603,
7,csavarhúzó,hering,,,,,,,,,2,0,2,0,,,,,0,9,9,6,,,,,,1420.8168007517233,,,,,,,1421.84454749804,1421.84454749804,1421.84454749804,1421.84454749804,hering,4,6.345435258001089,1428.2233016556129,1428.2233016556129,1428.2233016556129,csavarhúzó,down,2.8939043609425426,1431.1565145878121,1431.1565145878121,4,2.159596187993884,,,,,,,,,,,,,,,,,,,,,150196,2022-09-06_11h45.29.689,palt,2022.2.2,50.62718561994603,
,,,,,,,,,,,2,0,2,0,,,,,,,,,,,,,,,,,,,,,,,,,,,,,,,,,,,,,,,,,,,,,,,,,,,,1433.3688756618649,1433.3688756618649,4,32.89218636136502,,,150196,2022-09-06_11h45.29.689,palt,2022.2.2,50.62718561994603,
7,csavarhúzó,hering,,,,,,,,,3,0,3,0,0,0,0,6,,,,,,,,,,1470.3203524444252,1471.3108250750229,1471.3108250750229,,,,,,,,,,,,,,,,,,,,,,,,,,,1466.291707823053,,,,,,,,,,,,,,,150196,2022-09-06_11h45.29.689,palt,2022.2.2,50.62718561994603,
10,málna,dominó,,,,,,,,,3,0,3,0,0,1,1,9,,,,,,,,,,1477.2961085634306,1478.3226140830666,1478.3226140830666,,,,,,,,,,,,,,,,,,,,,,,,,,,,,,,,,,,,,,,,,,150196,2022-09-06_11h45.29.689,palt,2022.2.2,50.62718561994603,
9,szilva,kecske,,,,,,,,,3,0,3,0,0,2,2,8,,,,,,,,,,1484.2959116958082,1485.31797386799,1485.31797386799,,,,,,,,,,,,,,,,,,,,,,,,,,,,,,,,,,,,,,,,,,150196,2022-09-06_11h45.29.689,palt,2022.2.2,50.62718561994603,
2,kötény,tisztás,,,,,,,,,3,0,3,0,0,3,3,1,,,,,,,,,,1491.2949146097526,1492.3094526035711,1492.3094526035711,,,,,,,,,,,,,,,,,,,,,,,,,,,,,,,,,,,,,,,,,,150196,2022-09-06_11h45.29.689,palt,2022.2.2,50.62718561994603,
8,szalvéta,puska,,,,,,,,,3,0,3,0,0,4,4,7,,,,,,,,,,1498.2990898704156,1499.3068249104545,1499.3068249104545,,,,,,,,,,,,,,,,,,,,,,,,,,,,,,,,,,,,,,,,,,150196,2022-09-06_11h45.29.689,palt,2022.2.2,50.62718561994603,
6,menta,triatlon,,,,,,,,,3,0,3,0,0,5,5,5,,,,,,,,,,1505.3021153407171,1506.3032825477421,1506.3032825477421,,,,,,,,,,,,,,,,,,,,,,,,,,,,,,,,,,,,,,,,,,150196,2022-09-06_11h45.29.689,palt,2022.2.2,50.62718561994603,
3,fogó,limonádé,,,,,,,,,3,0,3,0,0,6,6,2,,,,,,,,,,1512.305258370936,1513.322475373745,1513.322475373745,,,,,,,,,,,,,,,,,,,,,,,,,,,,,,,,,,,,,,,,,,150196,2022-09-06_11h45.29.689,palt,2022.2.2,50.62718561994603,
1,bagoly,kirakó,,,,,,,,,3,0,3,0,0,7,7,0,,,,,,,,,,1519.294857384637,1520.3136107586324,1520.3136107586324,,,,,,,,,,,,,,,,,,,,,,,,,,,,,,,,,,,,,,,,,,150196,2022-09-06_11h45.29.689,palt,2022.2.2,50.62718561994603,
5,karton,hentes,,,,,,,,,3,0,3,0,0,8,8,4,,,,,,,,,,1526.2963822484016,1527.3028648663312,1527.3028648663312,,,,,,,,,,,,,,,,,,,,,,,,,,,,,,,,,,,,,,,,,,150196,2022-09-06_11h45.29.689,palt,2022.2.2,50.62718561994603,
4,mocsár,ananász,,,,,,,,,3,0,3,0,0,9,9,3,,,,,,,,,,1533.3053591372445,1534.3131594890729,1534.3131594890729,,,,,,,,,,,,,,,,,,,,,,,,,,,,,,,,,,,,,,,,,,150196,2022-09-06_11h45.29.689,palt,2022.2.2,50.62718561994603,
7,csavarhúzó,hering,,,,,,,,,3,0,3,0,,,,,0,0,0,6,,,,,,1551.6430324614048,,,,,,,1552.6221968987957,1552.6221968987957,1552.6221968987957,1552.6221968987957,hering,4,3.7116185380145907,1556.382905160077,1556.382905160077,1556.382905160077,csavarhúzó,down,3.0206372886896133,1559.4358253860846,1559.4358253860846,4,1.5506198601797223,,,,,,1547.6184225250036,1540.2962230136618,1540.2962230136618,u,2.883758398704231,1543.2125091124326,1543.2125091124326,4,4.371947309933603,,,,,,,150196,2022-09-06_11h45.29.689,palt,2022.2.2,50.62718561994603,
2,kötény,tisztás,,,,,,,,,3,0,3,0,,,,,0,1,1,1,,,,,,1561.0144636631012,,,,,,,1562.0359725542367,1562.0359725542367,1562.0359725542367,1562.0359725542367,tisztás,4,4.2852891106158495,1566.3547080764547,1566.3547080764547,1566.3547080764547, kirakó,down,2.536557394079864,1568.927880727686,1568.927880727686,4,4.835635446943343,,,,,,,,,,,,,,,,,,,,,150196,2022-09-06_11h45.29.689,palt,2022.2.2,50.62718561994603,
3,fogó,limonádé,,,,,,,,,3,0,3,0,,,,,0,2,2,2,,,,,,1573.785724681802,,,,,,,1574.810628829524,1574.810628829524,1574.810628829524,1574.810628829524,limonádé,4,3.3492217613384128,1578.195143448189,1578.195143448189,1578.195143448189, fogó,down,1.687636213377118,1579.927956301719,1579.927956301719,4,1.4955356512218714,,,,,,,,,,,,,,,,,,,,,150196,2022-09-06_11h45.29.689,palt,2022.2.2,50.62718561994603,
5,karton,hentes,,,,,,,,,3,0,3,0,,,,,0,3,3,4,,,,,,1581.445370794274,,,,,,,1582.4623694699258,1582.4623694699258,1582.4623694699258,1582.4623694699258,karton,4,2.0058688381686807,1584.5073307314888,1584.5073307314888,1584.5073307314888,hentes,down,2.0953133441507816,1586.6395084476098,1586.6395084476098,4,1.5682971524074674,,,,,,,,,,,,,,,,,,,,,150196,2022-09-06_11h45.29.689,palt,2022.2.2,50.62718561994603,
10,málna,dominó,,,,,,,,,3,0,3,0,,,,,0,4,4,9,,,,,,1588.2290310151875,,,,,,,1589.238599749282,1589.238599749282,1589.238599749282,1589.238599749282,dominó,4,4.5668344888836145,1593.8307496989146,1593.8307496989146,1593.8307496989146, málna,down,3.1238425821065903,1596.9973430717364,1596.9973430717364,4,2.441070968285203,,,,,,,,,,,,,,,,,,,,,150196,2022-09-06_11h45.29.689,palt,2022.2.2,50.62718561994603,
1,bagoly,kirakó,,,,,,,,,3,0,3,0,,,,,0,5,5,0,,,,,,1599.4609830034897,,,,,,,1600.486439188011,1600.486439188011,1600.486439188011,1600.486439188011,bagoly,4,12.354517578147352,1612.8760235216469,1612.8760235216469,1612.8760235216469,kirakó,down,1.8064646031707525,1614.7186353160068,1614.7186353160068,4,1.6562883239239454,,,,,,,,,,,,,,,,,,,,,150196,2022-09-06_11h45.29.689,palt,2022.2.2,50.62718561994603,
8,szalvéta,puska,,,,,,,,,3,0,3,0,,,,,0,6,6,7,,,,,,1616.401704874821,,,,,,,1617.4268245501444,1617.4268245501444,1617.4268245501444,1617.4268245501444,szalvéta,None,,1632.405060322024,1632.405060322024,1632.405060322024, ,down,5.685668165795505,1638.1270430004224,1638.1270430004224,4,2.2204427225515246,,,,,,,,,,,,,,,,,,,,,150196,2022-09-06_11h45.29.689,palt,2022.2.2,50.62718561994603,
9,szilva,kecske,,,,,,,,,3,0,3,0,,,,,0,7,7,8,,,,,,1640.3744296142831,,,,,,,1641.4006844628602,1641.4006844628602,1641.4006844628602,1641.4006844628602,szilva,4,3.4516943246126175,1644.8923059506342,1644.8923059506342,1644.8923059506342,kötény,down,1.9343211958184838,1646.854789249599,1646.854789249599,4,2.88021479267627,,,,,,,,,,,,,,,,,,,,,150196,2022-09-06_11h45.29.689,palt,2022.2.2,50.62718561994603,
4,mocsár,ananász,,,,,,,,,3,0,3,0,,,,,0,8,8,3,,,,,,1649.7561038108543,,,,,,,1650.7752764225006,1650.7752764225006,1650.7752764225006,1650.7752764225006,mocsár,4,2.359114252962172,1653.1546298898757,1653.1546298898757,1653.1546298898757,ananász,down,3.2242780532687902,1656.4312137831002,1656.4312137831002,4,1.789658128283918,,,,,,,,,,,,,,,,,,,,,150196,2022-09-06_11h45.29.689,palt,2022.2.2,50.62718561994603,
6,menta,triatlon,,,,,,,,,3,0,3,0,,,,,0,9,9,5,,,,,,1658.2478310409933,,,,,,,1659.27463792637,1659.27463792637,1659.27463792637,1659.27463792637,triatlon,4,2.5906917890533805,1661.8895535441115,1661.8895535441115,1661.8895535441115,menta,down,1.7683573011308908,1663.6832004915923,1663.6832004915923,4,1.4778179284185171,,,,,,,,,,,,,,,,,,,,,150196,2022-09-06_11h45.29.689,palt,2022.2.2,50.62718561994603,
,,,,,,,,,,,3,0,3,0,,,,,,,,,,,,,,,,,,,,,,,,,,,,,,,,,,,,,,,,,,,,,,,,,,,,1665.2251779576764,1665.2251779576764,4,31.984636121429503,,,150196,2022-09-06_11h45.29.689,palt,2022.2.2,50.62718561994603,
,,,,,,,,,,,,,,,,,,,,,,,,,,,,,,,,,,,,,,,,,,,,,,,,,,,,,,,,,,,,,,,,,,,,,,,1697.2310550455004,,,,,,
