itemno,wordA,wordB,enc_gyak.thisRepN,enc_gyak.thisTrialN,enc_gyak.thisN,enc_gyak.thisIndex,rec_gyak.thisRepN,rec_gyak.thisTrialN,rec_gyak.thisN,rec_gyak.thisIndex,repeat_task.thisRepN,repeat_task.thisTrialN,repeat_task.thisN,repeat_task.thisIndex,enc_loop.thisRepN,enc_loop.thisTrialN,enc_loop.thisN,enc_loop.thisIndex,test_loop.thisRepN,test_loop.thisTrialN,test_loop.thisN,test_loop.thisIndex,int.started,int_key.started,int_key.keys,int_key.rt,prepare_gyak_text.started,fix.started,word1.started,word2.started,gykrec_inst.started,gyakrec_inst.started,gyakrec_inst.keys,gyakrec_inst.rt,cueword1.started,cue_resp.started,cue_cont_text.started,cue_space.started,cueword,cue_resp.keys,cue_resp.rt,test_ansbox.started,ans_text.started,ans_continue.started,test_ansbox.text,ans_continue.keys,ans_continue.rt,feedback_text.started,feedback_cont.started,feedback_cont.keys,feedback_cont.rt,main_prep.started,main_prep_resp.started,main_prep_resp.keys,main_prep_resp.rt,preparation.started,break_text.started,key_resp.started,key_resp.keys,key_resp.rt,test_instruction.started,test_i_key.started,test_i_key.keys,test_i_key.rt,rep_routine.started,encrep_textbox.started,rep_routine.keys,rep_routine.rt,preparation.stopped,end_text.started,Résztvevő kódja,date,expName,psychopyVersion,frameRate,
,,,,,,,,,,,,,,,,,,,,,,,12.046462178230286,12.046462178230286,4,68.4091038228944,,,,,,,,,,,,,,,,,,,,,,,,,,,,,,,,,,,,,,,,,,,,,189616,2022-09-07_13h53.00.444,palt,2022.2.2,59.343074595539534,
1,sapka,beton,0,0,0,0,,,,,,,,,,,,,,,,,,,,,80.51829246338457,83.53095539938658,84.50743491854519,84.50743491854519,,,,,,,,,,,,,,,,,,,,,,,,,,,,,,,,,,,,,,,,,189616,2022-09-07_13h53.00.444,palt,2022.2.2,59.343074595539534,
2,lepke,szintetizátor,0,1,1,1,,,,,,,,,,,,,,,,,,,,,,90.49168555531651,91.51171187870204,91.51171187870204,,,,,,,,,,,,,,,,,,,,,,,,,,,,,,,,,,,,,,,,,189616,2022-09-07_13h53.00.444,palt,2022.2.2,59.343074595539534,
3,majoránna,szikla,0,2,2,2,,,,,,,,,,,,,,,,,,,,,,97.49462674278766,98.51861404348165,98.51861404348165,,,,,,,,,,,,,,,,,,,,,,,,,,,,,,,,,,,,,,,,,189616,2022-09-07_13h53.00.444,palt,2022.2.2,59.343074595539534,
4,kard,harcsa,0,3,3,3,,,,,,,,,,,,,,,,,,,,,,104.50487844645977,105.52036469895393,105.52036469895393,,,,,,,,,,,,,,,,,,,,,,,,,,,,,,,,,,,,,,,,,189616,2022-09-07_13h53.00.444,palt,2022.2.2,59.343074595539534,
,,,,,,,,,,,,,,,,,,,,,,,,,,,,,,,111.51061651390046,111.51061651390046,4,12.694524963386357,,,,,,,,,,,,,,,,,,,,,,,,,,,,,,,,,,,,,189616,2022-09-07_13h53.00.444,palt,2022.2.2,59.343074595539534,
4,kard,harcsa,,,,,0,0,0,3,,,,,,,,,,,,,,,,,,124.24930458981544,,,,,,,125.26221850793809,125.26221850793809,125.26221850793809,125.26221850793809,kard,4,6.516621531918645,131.8136788699776,131.8136788699776,131.8136788699776,harcsa,down,2.1597071746364236,134.04686119873077,134.04686119873077,4,3.0315632121637464,,,,,,,,,,,,,,,,,,,,189616,2022-09-07_13h53.00.444,palt,2022.2.2,59.343074595539534,
3,majoránna,szikla,,,,,0,1,1,2,,,,,,,,,,,,,,,,,,137.10131313093007,,,,,,,138.13182223588228,138.13182223588228,138.13182223588228,138.13182223588228,szikla,4,11.680874581448734,149.85572600085288,149.85572600085288,149.85572600085288, ,down,3.7982564801350236,153.70427148602903,153.70427148602903,4,2.966829097829759,,,,,,,,,,,,,,,,,,,,189616,2022-09-07_13h53.00.444,palt,2022.2.2,59.343074595539534,
1,sapka,beton,,,,,0,2,2,0,,,,,,,,,,,,,,,,,,156.70324796438217,,,,,,,157.73106126580387,157.73106126580387,157.73106126580387,157.73106126580387,beton,4,4.648079578764737,162.42667775508016,162.42667775508016,162.42667775508016,szikla,down,1.962470654398203,164.43528485670686,164.43528485670686,4,4.050146155059338,,,,,,,,,,,,,,,,,,,,189616,2022-09-07_13h53.00.444,palt,2022.2.2,59.343074595539534,
2,lepke,szintetizátor,,,,,0,3,3,1,,,,,,,,,,,,,,,,,,168.5168385077268,,,,,,,169.54348087031394,169.54348087031394,169.54348087031394,169.54348087031394,lepke,4,3.5218741185963154,173.1082324013114,173.1082324013114,173.1082324013114,szikla,down,1.9367749951779842,175.0694467946887,175.0694467946887,4,27.703490344807506,,,,,,,,,,,,,,,,,,,,189616,2022-09-07_13h53.00.444,palt,2022.2.2,59.343074595539534,
,,,,,,,,,,,,,,,,,,,,,,,,,,,,,,,,,,,,,,,,,,,,,,,,,,,,202.80707775894552,202.80707775894552,4,43.460492031648755,,,,,,,,,,,,,,,,189616,2022-09-07_13h53.00.444,palt,2022.2.2,59.343074595539534,
9,szilva,kecske,,,,,,,,,0,0,0,0,0,0,0,8,,,,,,,,,,250.32690099533647,251.32900806330144,251.32900806330144,,,,,,,,,,,,,,,,,,,,,,,,,,246.30000609532,,,,,,,,,,,,,,,189616,2022-09-07_13h53.00.444,palt,2022.2.2,59.343074595539534,
1,bagoly,kirakó,,,,,,,,,0,0,0,0,0,1,1,0,,,,,,,,,,257.3064678758383,258.3195904791355,258.3195904791355,,,,,,,,,,,,,,,,,,,,,,,,,,,,,,,,,,,,,,,,,189616,2022-09-07_13h53.00.444,palt,2022.2.2,59.343074595539534,
3,fogó,limonádé,,,,,,,,,0,0,0,0,0,2,2,2,,,,,,,,,,264.29809122905135,265.3244160544127,265.3244160544127,,,,,,,,,,,,,,,,,,,,,,,,,,,,,,,,,,,,,,,,,189616,2022-09-07_13h53.00.444,palt,2022.2.2,59.343074595539534,
5,karton,hentes,,,,,,,,,0,0,0,0,0,3,3,4,,,,,,,,,,271.3063776837662,272.3128475500271,272.3128475500271,,,,,,,,,,,,,,,,,,,,,,,,,,,,,,,,,,,,,,,,,189616,2022-09-07_13h53.00.444,palt,2022.2.2,59.343074595539534,
7,csavarhúzó,hering,,,,,,,,,0,0,0,0,0,4,4,6,,,,,,,,,,278.3044752571732,279.31528366263956,279.31528366263956,,,,,,,,,,,,,,,,,,,,,,,,,,,,,,,,,,,,,,,,,189616,2022-09-07_13h53.00.444,palt,2022.2.2,59.343074595539534,
6,menta,triatlon,,,,,,,,,0,0,0,0,0,5,5,5,,,,,,,,,,285.30607507470995,286.32273475360125,286.32273475360125,,,,,,,,,,,,,,,,,,,,,,,,,,,,,,,,,,,,,,,,,189616,2022-09-07_13h53.00.444,palt,2022.2.2,59.343074595539534,
2,kötény,tisztás,,,,,,,,,0,0,0,0,0,6,6,1,,,,,,,,,,292.3055541384965,293.3141774125397,293.3141774125397,,,,,,,,,,,,,,,,,,,,,,,,,,,,,,,,,,,,,,,,,189616,2022-09-07_13h53.00.444,palt,2022.2.2,59.343074595539534,
8,szalvéta,puska,,,,,,,,,0,0,0,0,0,7,7,7,,,,,,,,,,299.3096420066431,300.3278871970251,300.3278871970251,,,,,,,,,,,,,,,,,,,,,,,,,,,,,,,,,,,,,,,,,189616,2022-09-07_13h53.00.444,palt,2022.2.2,59.343074595539534,
10,málna,dominó,,,,,,,,,0,0,0,0,0,8,8,9,,,,,,,,,,306.29853223636746,307.3276418130845,307.3276418130845,,,,,,,,,,,,,,,,,,,,,,,,,,,,,,,,,,,,,,,,,189616,2022-09-07_13h53.00.444,palt,2022.2.2,59.343074595539534,
4,mocsár,ananász,,,,,,,,,0,0,0,0,0,9,9,3,,,,,,,,,,313.30181148741394,314.31582139246166,314.31582139246166,,,,,,,,,,,,,,,,,,,,,,,,,,,,,,,,,,,,,,,,,189616,2022-09-07_13h53.00.444,palt,2022.2.2,59.343074595539534,
9,szilva,kecske,,,,,,,,,0,0,0,0,,,,,0,0,0,8,,,,,,332.1632556524128,,,,,,,333.16263488307595,333.16263488307595,333.16263488307595,333.16263488307595,szilva,4,3.4864660408347845,336.7001170627773,336.7001170627773,336.7001170627773,kecske,down,1.9274252094328403,338.6774801518768,338.6774801518768,4,4.188632014207542,,,,,328.14346818160266,320.30566889978945,320.30566889978945,u,5.538300232030451,325.90107384324074,325.90107384324074,4,2.2169858450070024,,,,,,,189616,2022-09-07_13h53.00.444,palt,2022.2.2,59.343074595539534,
1,bagoly,kirakó,,,,,,,,,0,0,0,0,,,,,0,1,1,0,,,,,,342.8941931370646,,,,,,,343.91795589216053,343.91795589216053,343.91795589216053,343.91795589216053,kirakó,4,4.470772969536483,348.42181019391865,348.42181019391865,348.42181019391865,bagoly,down,1.5499079236760736,349.99338520504534,349.99338520504534,4,2.3006465639919043,,,,,,,,,,,,,,,,,,,,189616,2022-09-07_13h53.00.444,palt,2022.2.2,59.343074595539534,
8,szalvéta,puska,,,,,,,,,0,0,0,0,,,,,0,2,2,7,,,,,,352.3246539738029,,,,,,,353.3538745800033,353.3538745800033,353.3538745800033,353.3538745800033,puska,4,3.4594893464818597,356.8538179770112,356.8538179770112,356.8538179770112,szilva,down,1.8372936910018325,358.7281916094944,358.7281916094944,4,2.7405560864135623,,,,,,,,,,,,,,,,,,,,189616,2022-09-07_13h53.00.444,palt,2022.2.2,59.343074595539534,
6,menta,triatlon,,,,,,,,,0,0,0,0,,,,,0,3,3,5,,,,,,361.5021412791684,,,,,,,362.5248419465497,362.5248419465497,362.5248419465497,362.5248419465497,triatlon,4,2.2992181116715074,364.8748703105375,364.8748703105375,364.8748703105375,menta,down,1.4959694631397724,366.4146884586662,366.4146884586662,4,1.5488396175205708,,,,,,,,,,,,,,,,,,,,189616,2022-09-07_13h53.00.444,palt,2022.2.2,59.343074595539534,
3,fogó,limonádé,,,,,,,,,0,0,0,0,,,,,0,4,4,2,,,,,,367.9963920144364,,,,,,,369.0126041555777,369.0126041555777,369.0126041555777,369.0126041555777,limonádé,4,2.601796852424741,371.66024293284863,371.66024293284863,371.66024293284863,fecske,down,2.278507573530078,373.97650813218206,373.97650813218206,4,3.573345987126231,,,,,,,,,,,,,,,,,,,,189616,2022-09-07_13h53.00.444,palt,2022.2.2,59.343074595539534,
2,kötény,tisztás,,,,,,,,,0,0,0,0,,,,,0,5,5,1,,,,,,377.58117080200464,,,,,,,378.6119492389262,378.6119492389262,378.6119492389262,378.6119492389262,kötény,4,2.208108788356185,380.8682645345107,380.8682645345107,380.8682645345107, triatlon,down,2.350536343641579,383.25482184346765,383.25482184346765,4,1.1408729394897819,,,,,,,,,,,,,,,,,,,,189616,2022-09-07_13h53.00.444,palt,2022.2.2,59.343074595539534,
4,mocsár,ananász,,,,,,,,,0,0,0,0,,,,,0,6,6,3,,,,,,384.41503212042153,,,,,,,385.44671092089266,385.44671092089266,385.44671092089266,385.44671092089266,mocsár,4,3.2265996737405658,388.7237152950838,388.7237152950838,388.7237152950838, ,down,1.2952437605708838,390.05249756760895,390.05249756760895,4,1.905336913652718,,,,,,,,,,,,,,,,,,,,189616,2022-09-07_13h53.00.444,palt,2022.2.2,59.343074595539534,
5,karton,hentes,,,,,,,,,0,0,0,0,,,,,0,7,7,4,,,,,,391.98818331211805,,,,,,,393.0050868205726,393.0050868205726,393.0050868205726,393.0050868205726,karton,4,3.2966180983930826,396.3383659347892,396.3383659347892,396.3383659347892, ,down,1.504404578357935,397.8728525005281,397.8728525005281,4,1.2860295744612813,,,,,,,,,,,,,,,,,,,,189616,2022-09-07_13h53.00.444,palt,2022.2.2,59.343074595539534,
10,málna,dominó,,,,,,,,,0,0,0,0,,,,,0,8,8,9,,,,,,399.1901664128527,,,,,,,400.2114958539605,400.2114958539605,400.2114958539605,400.2114958539605,dominó,4,2.801197045482695,403.052852736786,403.052852736786,403.052852736786,menta,down,1.861884344369173,404.9393714806065,404.9393714806065,4,1.1614827113226056,,,,,,,,,,,,,,,,,,,,189616,2022-09-07_13h53.00.444,palt,2022.2.2,59.343074595539534,
7,csavarhúzó,hering,,,,,,,,,0,0,0,0,,,,,0,9,9,6,,,,,,406.1341563388705,,,,,,,407.15279992856085,407.15279992856085,407.15279992856085,407.15279992856085,hering,4,3.6063894843682647,410.79164468869567,410.79164468869567,410.79164468869567,csalán,down,2.731240199878812,413.5612623495981,413.5612623495981,4,0.3132429448887706,,,,,,,,,,,,,,,,,,,,189616,2022-09-07_13h53.00.444,palt,2022.2.2,59.343074595539534,
,,,,,,,,,,,0,0,0,0,,,,,,,,,,,,,,,,,,,,,,,,,,,,,,,,,,,,,,,,,,,,,,,,,,,413.9333270713687,413.9333270713687,4,18.531615772284567,,,189616,2022-09-07_13h53.00.444,palt,2022.2.2,59.343074595539534,
9,szilva,kecske,,,,,,,,,1,0,1,0,0,0,0,8,,,,,,,,,,436.50959485862404,437.5150231635198,437.5150231635198,,,,,,,,,,,,,,,,,,,,,,,,,,432.48647744208574,,,,,,,,,,,,,,,189616,2022-09-07_13h53.00.444,palt,2022.2.2,59.343074595539534,
10,málna,dominó,,,,,,,,,1,0,1,0,0,1,1,9,,,,,,,,,,443.4879811583087,444.5109231667593,444.5109231667593,,,,,,,,,,,,,,,,,,,,,,,,,,,,,,,,,,,,,,,,,189616,2022-09-07_13h53.00.444,palt,2022.2.2,59.343074595539534,
8,szalvéta,puska,,,,,,,,,1,0,1,0,0,2,2,7,,,,,,,,,,450.49689615610987,451.51152807381004,451.51152807381004,,,,,,,,,,,,,,,,,,,,,,,,,,,,,,,,,,,,,,,,,189616,2022-09-07_13h53.00.444,palt,2022.2.2,59.343074595539534,
5,karton,hentes,,,,,,,,,1,0,1,0,0,3,3,4,,,,,,,,,,457.48796840664,458.50969717931,458.50969717931,,,,,,,,,,,,,,,,,,,,,,,,,,,,,,,,,,,,,,,,,189616,2022-09-07_13h53.00.444,palt,2022.2.2,59.343074595539534,
6,menta,triatlon,,,,,,,,,1,0,1,0,0,4,4,5,,,,,,,,,,464.49212687276304,465.50495339836925,465.50495339836925,,,,,,,,,,,,,,,,,,,,,,,,,,,,,,,,,,,,,,,,,189616,2022-09-07_13h53.00.444,palt,2022.2.2,59.343074595539534,
2,kötény,tisztás,,,,,,,,,1,0,1,0,0,5,5,1,,,,,,,,,,471.4958337582648,472.504327964969,472.504327964969,,,,,,,,,,,,,,,,,,,,,,,,,,,,,,,,,,,,,,,,,189616,2022-09-07_13h53.00.444,palt,2022.2.2,59.343074595539534,
4,mocsár,ananász,,,,,,,,,1,0,1,0,0,6,6,3,,,,,,,,,,478.4898929139599,479.5155646260828,479.5155646260828,,,,,,,,,,,,,,,,,,,,,,,,,,,,,,,,,,,,,,,,,189616,2022-09-07_13h53.00.444,palt,2022.2.2,59.343074595539534,
3,fogó,limonádé,,,,,,,,,1,0,1,0,0,7,7,2,,,,,,,,,,485.49906604737043,486.5112071149051,486.5112071149051,,,,,,,,,,,,,,,,,,,,,,,,,,,,,,,,,,,,,,,,,189616,2022-09-07_13h53.00.444,palt,2022.2.2,59.343074595539534,
7,csavarhúzó,hering,,,,,,,,,1,0,1,0,0,8,8,6,,,,,,,,,,492.4984738919884,493.50162718538195,493.50162718538195,,,,,,,,,,,,,,,,,,,,,,,,,,,,,,,,,,,,,,,,,189616,2022-09-07_13h53.00.444,palt,2022.2.2,59.343074595539534,
1,bagoly,kirakó,,,,,,,,,1,0,1,0,0,9,9,0,,,,,,,,,,499.4955000486225,500.5110721383244,500.5110721383244,,,,,,,,,,,,,,,,,,,,,,,,,,,,,,,,,,,,,,,,,189616,2022-09-07_13h53.00.444,palt,2022.2.2,59.343074595539534,
7,csavarhúzó,hering,,,,,,,,,1,0,1,0,,,,,0,0,0,6,,,,,,514.6043846299872,,,,,,,515.588631534949,515.588631534949,515.588631534949,515.588631534949,hering,4,7.951292461715639,523.5763368299231,523.5763368299231,523.5763368299231,csavarhúzó,down,3.4324554270133376,527.0487207062542,527.0487207062542,4,4.014326304197311,,,,,510.57395172212273,506.48697971738875,506.48697971738875,u,2.650467487052083,509.1672359118238,509.1672359118238,4,1.3732186621055007,,,,,,,189616,2022-09-07_13h53.00.444,palt,2022.2.2,59.343074595539534,
8,szalvéta,puska,,,,,,,,,1,0,1,0,,,,,0,1,1,7,,,,,,531.0905299177393,,,,,,,532.1099090371281,532.1099090371281,532.1099090371281,532.1099090371281,puska,4,6.055019314400852,538.2097750548273,538.2097750548273,538.2097750548273,szilva,down,1.7268282631412148,539.9755253521726,539.9755253521726,4,2.776082346215844,,,,,,,,,,,,,,,,,,,,189616,2022-09-07_13h53.00.444,palt,2022.2.2,59.343074595539534,
2,kötény,tisztás,,,,,,,,,1,0,1,0,,,,,0,2,2,1,,,,,,542.783057491295,,,,,,,543.8096566237509,543.8096566237509,543.8096566237509,543.8096566237509,kötény,4,9.799649165943265,553.6406336696818,553.6406336696818,553.6406336696818, ,down,1.4004255011677742,555.0718284808099,555.0718284808099,4,1.5677795950323343,,,,,,,,,,,,,,,,,,,,189616,2022-09-07_13h53.00.444,palt,2022.2.2,59.343074595539534,
4,mocsár,ananász,,,,,,,,,1,0,1,0,,,,,0,3,3,3,,,,,,556.6723174452782,,,,,,,557.7054803678766,557.7054803678766,557.7054803678766,557.7054803678766,mocsár,4,4.42105517629534,562.1566899958998,562.1566899958998,562.1566899958998, ,down,1.4281290173530579,563.6036783345044,563.6036783345044,4,1.616313386708498,,,,,,,,,,,,,,,,,,,,189616,2022-09-07_13h53.00.444,palt,2022.2.2,59.343074595539534,
6,menta,triatlon,,,,,,,,,1,0,1,0,,,,,0,4,4,5,,,,,,565.242513765581,,,,,,,566.2603543354198,566.2603543354198,566.2603543354198,566.2603543354198,triatlon,4,3.4772841995581985,569.7695330670103,569.7695330670103,569.7695330670103, menta,down,1.3833515606820583,571.1983922217041,571.1983922217041,4,1.984917540103197,,,,,,,,,,,,,,,,,,,,189616,2022-09-07_13h53.00.444,palt,2022.2.2,59.343074595539534,
10,málna,dominó,,,,,,,,,1,0,1,0,,,,,0,5,5,9,,,,,,573.2088550981134,,,,,,,574.2351251859218,574.2351251859218,574.2351251859218,574.2351251859218,dominó,4,5.414266217499971,579.6746366200969,579.6746366200969,579.6746366200969, mocsár,down,1.9901620410382748,581.7184633295983,581.7184633295983,4,0.6047594994306564,,,,,,,,,,,,,,,,,,,,189616,2022-09-07_13h53.00.444,palt,2022.2.2,59.343074595539534,
5,karton,hentes,,,,,,,,,1,0,1,0,,,,,0,6,6,4,,,,,,582.3552109738812,,,,,,,583.3803841425106,583.3803841425106,583.3803841425106,583.3803841425106,karton,4,5.5674110520631075,588.9720762912184,588.9720762912184,588.9720762912184, ,down,1.348653200082481,590.3577652694657,590.3577652694657,4,0.8553031384944916,,,,,,,,,,,,,,,,,,,,189616,2022-09-07_13h53.00.444,palt,2022.2.2,59.343074595539534,
1,bagoly,kirakó,,,,,,,,,1,0,1,0,,,,,0,7,7,0,,,,,,591.2466557482257,,,,,,,592.2762212594971,592.2762212594971,592.2762212594971,592.2762212594971,kirakó,4,2.9229824831709266,595.2343495367095,595.2343495367095,595.2343495367095,bagoly,down,1.6138965552672744,596.8973467424512,596.8973467424512,4,1.1376701947301626,,,,,,,,,,,,,,,,,,,,189616,2022-09-07_13h53.00.444,palt,2022.2.2,59.343074595539534,
3,fogó,limonádé,,,,,,,,,1,0,1,0,,,,,0,8,8,2,,,,,,598.0618178071454,,,,,,,599.0812379792333,599.0812379792333,599.0812379792333,599.0812379792333,limonádé,4,11.30886366404593,610.4276717314497,610.4276717314497,610.4276717314497,fecske,down,3.62036953214556,614.1002516662702,614.1002516662702,4,0.39790728222578764,,,,,,,,,,,,,,,,,,,,189616,2022-09-07_13h53.00.444,palt,2022.2.2,59.343074595539534,
9,szilva,kecske,,,,,,,,,1,0,1,0,,,,,0,9,9,8,,,,,,614.5216289395466,,,,,,,615.5482573071495,615.5482573071495,615.5482573071495,615.5482573071495,szilva,4,8.903382238000631,624.4810730842873,624.4810730842873,624.4810730842873, ,down,1.4870078144595027,625.9860009802505,625.9860009802505,4,1.552220568060875,,,,,,,,,,,,,,,,,,,,189616,2022-09-07_13h53.00.444,palt,2022.2.2,59.343074595539534,
,,,,,,,,,,,1,0,1,0,,,,,,,,,,,,,,,,,,,,,,,,,,,,,,,,,,,,,,,,,,,,,,,,,,,627.5718881944194,627.5718881944194,4,8.832902592606843,,,189616,2022-09-07_13h53.00.444,palt,2022.2.2,59.343074595539534,
1,bagoly,kirakó,,,,,,,,,2,0,2,0,0,0,0,0,,,,,,,,,,640.469674388878,641.454397443682,641.454397443682,,,,,,,,,,,,,,,,,,,,,,,,,,636.4373418530449,,,,,,,,,,,,,,,189616,2022-09-07_13h53.00.444,palt,2022.2.2,59.343074595539534,
5,karton,hentes,,,,,,,,,2,0,2,0,0,1,1,4,,,,,,,,,,647.439598204568,648.454574406147,648.454574406147,,,,,,,,,,,,,,,,,,,,,,,,,,,,,,,,,,,,,,,,,189616,2022-09-07_13h53.00.444,palt,2022.2.2,59.343074595539534,
7,csavarhúzó,hering,,,,,,,,,2,0,2,0,0,2,2,6,,,,,,,,,,654.4376908028498,655.4559251070023,655.4559251070023,,,,,,,,,,,,,,,,,,,,,,,,,,,,,,,,,,,,,,,,,189616,2022-09-07_13h53.00.444,palt,2022.2.2,59.343074595539534,
10,málna,dominó,,,,,,,,,2,0,2,0,0,3,3,9,,,,,,,,,,661.4520555660129,662.4585596425459,662.4585596425459,,,,,,,,,,,,,,,,,,,,,,,,,,,,,,,,,,,,,,,,,189616,2022-09-07_13h53.00.444,palt,2022.2.2,59.343074595539534,
9,szilva,kecske,,,,,,,,,2,0,2,0,0,4,4,8,,,,,,,,,,668.453463180922,669.4602611586452,669.4602611586452,,,,,,,,,,,,,,,,,,,,,,,,,,,,,,,,,,,,,,,,,189616,2022-09-07_13h53.00.444,palt,2022.2.2,59.343074595539534,
8,szalvéta,puska,,,,,,,,,2,0,2,0,0,5,5,7,,,,,,,,,,675.4548894558102,676.457799853757,676.457799853757,,,,,,,,,,,,,,,,,,,,,,,,,,,,,,,,,,,,,,,,,189616,2022-09-07_13h53.00.444,palt,2022.2.2,59.343074595539534,
2,kötény,tisztás,,,,,,,,,2,0,2,0,0,6,6,1,,,,,,,,,,682.4441183712333,683.4589449791238,683.4589449791238,,,,,,,,,,,,,,,,,,,,,,,,,,,,,,,,,,,,,,,,,189616,2022-09-07_13h53.00.444,palt,2022.2.2,59.343074595539534,
6,menta,triatlon,,,,,,,,,2,0,2,0,0,7,7,5,,,,,,,,,,689.4477359978482,690.4604023555294,690.4604023555294,,,,,,,,,,,,,,,,,,,,,,,,,,,,,,,,,,,,,,,,,189616,2022-09-07_13h53.00.444,palt,2022.2.2,59.343074595539534,
4,mocsár,ananász,,,,,,,,,2,0,2,0,0,8,8,3,,,,,,,,,,696.4425185546279,697.4580231560394,697.4580231560394,,,,,,,,,,,,,,,,,,,,,,,,,,,,,,,,,,,,,,,,,189616,2022-09-07_13h53.00.444,palt,2022.2.2,59.343074595539534,
3,fogó,limonádé,,,,,,,,,2,0,2,0,0,9,9,2,,,,,,,,,,703.4375001555309,704.468836848624,704.468836848624,,,,,,,,,,,,,,,,,,,,,,,,,,,,,,,,,,,,,,,,,189616,2022-09-07_13h53.00.444,palt,2022.2.2,59.343074595539534,
7,csavarhúzó,hering,,,,,,,,,2,0,2,0,,,,,0,0,0,6,,,,,,719.3396118264645,,,,,,,720.3529089046642,720.3529089046642,720.3529089046642,720.3529089046642,hering,4,9.619663236662745,730.0267869802192,730.0267869802192,730.0267869802192, ,down,2.0523857111111283,732.1097000408918,732.1097000408918,4,1.1846380699425936,,,,,715.3233014075086,710.4526694919914,710.4526694919914,u,2.1708328062668443,712.6451808940619,712.6451808940619,4,2.6509800255298615,,,,,719.3396118264645,,189616,2022-09-07_13h53.00.444,palt,2022.2.2,59.343074595539534,
4,mocsár,ananász,,,,,,,,,2,0,2,0,,,,,0,1,1,3,,,,,,733.3299880446866,,,,,,,734.35922420118,734.35922420118,734.35922420118,734.35922420118,mocsár,4,2.847757190465927,737.247396254912,737.247396254912,737.247396254912,ananász,down,1.9028703216463327,739.1958699598908,739.1958699598908,4,1.557656959630549,,,,,,,,,,,,,,,,,,,,189616,2022-09-07_13h53.00.444,palt,2022.2.2,59.343074595539534,
6,menta,triatlon,,,,,,,,,2,0,2,0,,,,,0,2,2,5,,,,,,740.7798280008137,,,,,,,741.8073694827035,741.8073694827035,741.8073694827035,741.8073694827035,triatlon,4,2.0169101459905505,743.8533959407359,743.8533959407359,743.8533959407359,menta,down,1.3617450129240751,745.2482241531834,745.2482241531834,4,1.6742013171315193,,,,,,,,,,,,,,,,,,,,189616,2022-09-07_13h53.00.444,palt,2022.2.2,59.343074595539534,
2,kötény,tisztás,,,,,,,,,2,0,2,0,,,,,0,3,3,1,,,,,,746.9440891370177,,,,,,,747.9738916354254,747.9738916354254,747.9738916354254,747.9738916354254,kötény,4,2.7390262447297573,750.7520893411711,750.7520893411711,750.7520893411711,tisztás,down,1.8387358281761408,752.6197038721293,752.6197038721293,4,0.6226669363677502,,,,,,,,,,,,,,,,,,,,189616,2022-09-07_13h53.00.444,palt,2022.2.2,59.343074595539534,
3,fogó,limonádé,,,,,,,,,2,0,2,0,,,,,0,4,4,2,,,,,,753.2632081303746,,,,,,,754.2897102292627,754.2897102292627,754.2897102292627,754.2897102292627,limonádé,4,2.169224592857063,756.5029060440138,756.5029060440138,756.5029060440138,fecske,down,2.0556786470115185,758.5949048446491,758.5949048446491,4,0.49754782021045685,,,,,,,,,,,,,,,,,,,,189616,2022-09-07_13h53.00.444,palt,2022.2.2,59.343074595539534,
5,karton,hentes,,,,,,,,,2,0,2,0,,,,,0,5,5,4,,,,,,759.1217919690534,,,,,,,760.1424754494801,760.1424754494801,760.1424754494801,760.1424754494801,karton,4,8.558098899200559,768.7369790952653,768.7369790952653,768.7369790952653, ,down,1.388830871321261,770.1692409701645,770.1692409701645,4,0.8363752886652946,,,,,,,,,,,,,,,,,,,,189616,2022-09-07_13h53.00.444,palt,2022.2.2,59.343074595539534,
9,szilva,kecske,,,,,,,,,2,0,2,0,,,,,0,6,6,8,,,,,,771.0337668973953,,,,,,,772.0584038905799,772.0584038905799,772.0584038905799,772.0584038905799,szilva,4,8.36026431247592,780.4589648833498,780.4589648833498,780.4589648833498,kötény,down,2.3068623384460807,782.800697773695,782.800697773695,4,1.0040360363200307,,,,,,,,,,,,,,,,,,,,189616,2022-09-07_13h53.00.444,palt,2022.2.2,59.343074595539534,
8,szalvéta,puska,,,,,,,,,2,0,2,0,,,,,0,7,7,7,,,,,,783.8386806733906,,,,,,,784.8700459795073,784.8700459795073,784.8700459795073,784.8700459795073,puska,None,,799.8503418583423,799.8503418583423,799.8503418583423,szivaR,down,3.987956383265555,803.8698615524918,803.8698615524918,4,1.211231604218483,,,,,,,,,,,,,,,,,,,,189616,2022-09-07_13h53.00.444,palt,2022.2.2,59.343074595539534,
10,málna,dominó,,,,,,,,,2,0,2,0,,,,,0,8,8,9,,,,,,805.1101366933435,,,,,,,806.1351848375052,806.1351848375052,806.1351848375052,806.1351848375052,dominó,4,3.3040278255939484,809.4873575903475,809.4873575903475,809.4873575903475,menta,down,1.5660718595609069,811.0762562789023,811.0762562789023,4,0.5226062275469303,,,,,,,,,,,,,,,,,,,,189616,2022-09-07_13h53.00.444,palt,2022.2.2,59.343074595539534,
1,bagoly,kirakó,,,,,,,,,2,0,2,0,,,,,0,9,9,0,,,,,,811.6259404830635,,,,,,,812.6399391917512,812.6399391917512,812.6399391917512,812.6399391917512,kirakó,4,2.7858753157779574,815.4681255770847,815.4681255770847,815.4681255770847, ,down,6.786046369001269,822.2740703392774,822.2740703392774,4,2.2779773082584143,,,,,,,,,,,,,,,,,,,,189616,2022-09-07_13h53.00.444,palt,2022.2.2,59.343074595539534,
,,,,,,,,,,,2,0,2,0,,,,,,,,,,,,,,,,,,,,,,,,,,,,,,,,,,,,,,,,,,,,,,,,,,,824.5833074161783,824.5833074161783,4,16.331084137782454,,,189616,2022-09-07_13h53.00.444,palt,2022.2.2,59.343074595539534,
3,fogó,limonádé,,,,,,,,,3,0,3,0,0,0,0,2,,,,,,,,,,844.9498620377854,845.9593639047816,845.9593639047816,,,,,,,,,,,,,,,,,,,,,,,,,,840.9447795711458,,,,,,,,,,,,,,,189616,2022-09-07_13h53.00.444,palt,2022.2.2,59.343074595539534,
7,csavarhúzó,hering,,,,,,,,,3,0,3,0,0,1,1,6,,,,,,,,,,851.9528648043051,852.9651570208371,852.9651570208371,,,,,,,,,,,,,,,,,,,,,,,,,,,,,,,,,,,,,,,,,189616,2022-09-07_13h53.00.444,palt,2022.2.2,59.343074595539534,
10,málna,dominó,,,,,,,,,3,0,3,0,0,2,2,9,,,,,,,,,,858.9454591199756,859.9734702212736,859.9734702212736,,,,,,,,,,,,,,,,,,,,,,,,,,,,,,,,,,,,,,,,,189616,2022-09-07_13h53.00.444,palt,2022.2.2,59.343074595539534,
6,menta,triatlon,,,,,,,,,3,0,3,0,0,3,3,5,,,,,,,,,,865.9578234897926,866.9640184268355,866.9640184268355,,,,,,,,,,,,,,,,,,,,,,,,,,,,,,,,,,,,,,,,,189616,2022-09-07_13h53.00.444,palt,2022.2.2,59.343074595539534,
4,mocsár,ananász,,,,,,,,,3,0,3,0,0,4,4,3,,,,,,,,,,872.9528035363182,873.9657345600426,873.9657345600426,,,,,,,,,,,,,,,,,,,,,,,,,,,,,,,,,,,,,,,,,189616,2022-09-07_13h53.00.444,palt,2022.2.2,59.343074595539534,
8,szalvéta,puska,,,,,,,,,3,0,3,0,0,5,5,7,,,,,,,,,,879.9523395141587,880.9735352220014,880.9735352220014,,,,,,,,,,,,,,,,,,,,,,,,,,,,,,,,,,,,,,,,,189616,2022-09-07_13h53.00.444,palt,2022.2.2,59.343074595539534,
9,szilva,kecske,,,,,,,,,3,0,3,0,0,6,6,8,,,,,,,,,,886.9528999477625,887.964920966886,887.964920966886,,,,,,,,,,,,,,,,,,,,,,,,,,,,,,,,,,,,,,,,,189616,2022-09-07_13h53.00.444,palt,2022.2.2,59.343074595539534,
2,kötény,tisztás,,,,,,,,,3,0,3,0,0,7,7,1,,,,,,,,,,893.9583851676434,894.9636850273237,894.9636850273237,,,,,,,,,,,,,,,,,,,,,,,,,,,,,,,,,,,,,,,,,189616,2022-09-07_13h53.00.444,palt,2022.2.2,59.343074595539534,
5,karton,hentes,,,,,,,,,3,0,3,0,0,8,8,4,,,,,,,,,,900.9526483435184,901.9537673443556,901.9537673443556,,,,,,,,,,,,,,,,,,,,,,,,,,,,,,,,,,,,,,,,,189616,2022-09-07_13h53.00.444,palt,2022.2.2,59.343074595539534,
1,bagoly,kirakó,,,,,,,,,3,0,3,0,0,9,9,0,,,,,,,,,,907.9610147271305,908.9730435209349,908.9730435209349,,,,,,,,,,,,,,,,,,,,,,,,,,,,,,,,,,,,,,,,,189616,2022-09-07_13h53.00.444,palt,2022.2.2,59.343074595539534,
7,csavarhúzó,hering,,,,,,,,,3,0,3,0,,,,,0,0,0,6,,,,,,923.4992352351546,,,,,,,924.4939294662327,924.4939294662327,924.4939294662327,924.4939294662327,hering,4,9.050852139480412,933.5909525752068,933.5909525752068,933.5909525752068,,down,1.253842900507152,934.8752329433337,934.8752329433337,4,1.8061457788571715,,,,,919.4767883485183,914.9572465736419,914.9572465736419,u,2.751560114324093,917.7449893755838,917.7449893755838,4,1.7083093887194991,,,,,,,189616,2022-09-07_13h53.00.444,palt,2022.2.2,59.343074595539534,
2,kötény,tisztás,,,,,,,,,3,0,3,0,,,,,0,1,1,1,,,,,,936.7023202320561,,,,,,,937.7240462051705,937.7240462051705,937.7240462051705,937.7240462051705,kötény,4,5.1989698661491275,942.9579037297517,942.9579037297517,942.9579037297517,tisztás,down,1.8066797768697143,944.805359759368,944.805359759368,4,1.8656102009117603,,,,,,,,,,,,,,,,,,,,189616,2022-09-07_13h53.00.444,palt,2022.2.2,59.343074595539534,
4,mocsár,ananász,,,,,,,,,3,0,3,0,,,,,0,2,2,3,,,,,,946.694638996385,,,,,,,947.7217923421413,947.7217923421413,947.7217923421413,947.7217923421413,mocsár,4,2.535235575400293,950.287225288339,950.287225288339,950.287225288339,ananász,down,1.7244459548965096,952.0453789429739,952.0453789429739,4,0.7869305601343513,,,,,,,,,,,,,,,,,,,,189616,2022-09-07_13h53.00.444,palt,2022.2.2,59.343074595539534,
3,fogó,limonádé,,,,,,,,,3,0,3,0,,,,,0,3,3,2,,,,,,952.8534786682576,,,,,,,953.8821979323402,953.8821979323402,953.8821979323402,953.8821979323402,limonádé,4,2.656160769984126,956.5886784968898,956.5886784968898,956.5886784968898,fecske,down,2.0150366434827447,958.6552584338933,958.6552584338933,4,0.90028181578964,,,,,,,,,,,,,,,,,,,,189616,2022-09-07_13h53.00.444,palt,2022.2.2,59.343074595539534,
1,bagoly,kirakó,,,,,,,,,3,0,3,0,,,,,0,4,4,0,,,,,,959.5856611123309,,,,,,,960.6173585727811,960.6173585727811,960.6173585727811,960.6173585727811,kirakó,4,3.1554494984447956,963.8197099054232,963.8197099054232,963.8197099054232,bagoly,down,1.6964902123436332,965.5599688747898,965.5599688747898,4,1.2147095892578363,,,,,,,,,,,,,,,,,,,,189616,2022-09-07_13h53.00.444,palt,2022.2.2,59.343074595539534,
6,menta,triatlon,,,,,,,,,3,0,3,0,,,,,0,5,5,5,,,,,,966.8073952961713,,,,,,,967.821708121337,967.821708121337,967.821708121337,967.821708121337,triatlon,4,2.7239685598760843,970.5832169130445,970.5832169130445,970.5832169130445,menta,down,1.3970641437917948,972.0017316835001,972.0017316835001,4,0.44189727026969194,,,,,,,,,,,,,,,,,,,,189616,2022-09-07_13h53.00.444,palt,2022.2.2,59.343074595539534,
5,karton,hentes,,,,,,,,,3,0,3,0,,,,,0,6,6,4,,,,,,972.4694566838443,,,,,,,973.4927460867912,973.4927460867912,973.4927460867912,973.4927460867912,karton,4,7.112663105130196,980.6407972583547,980.6407972583547,980.6407972583547, ,down,0.8746275203302503,981.5559432078153,981.5559432078153,4,0.8321732822805643,,,,,,,,,,,,,,,,,,,,189616,2022-09-07_13h53.00.444,palt,2022.2.2,59.343074595539534,
9,szilva,kecske,,,,,,,,,3,0,3,0,,,,,0,7,7,8,,,,,,982.4105082219467,,,,,,,983.4391260966659,983.4391260966659,983.4391260966659,983.4391260966659,szilva,4,5.170724576339126,988.6507404437289,988.6507404437289,988.6507404437289,karton,down,1.90488844178617,990.589946469292,990.589946469292,4,0.6402132948860526,,,,,,,,,,,,,,,,,,,,189616,2022-09-07_13h53.00.444,palt,2022.2.2,59.343074595539534,
8,szalvéta,puska,,,,,,,,,3,0,3,0,,,,,0,8,8,7,,,,,,991.2613240536302,,,,,,,992.2939598206431,992.2939598206431,992.2939598206431,992.2939598206431,puska,4,2.1983895283192396,994.5214131008834,994.5214131008834,994.5214131008834,szalvéta,down,3.154342315159738,997.7058638390154,997.7058638390154,4,0.5567186521366239,,,,,,,,,,,,,,,,,,,,189616,2022-09-07_13h53.00.444,palt,2022.2.2,59.343074595539534,
10,málna,dominó,,,,,,,,,3,0,3,0,,,,,0,9,9,9,,,,,,998.2938519008458,,,,,,,999.3145366255194,999.3145366255194,999.3145366255194,999.3145366255194,dominó,4,2.1553294491022825,1001.504489377141,1001.504489377141,1001.504489377141,málna,down,1.594921744428575,1003.1259690960869,1003.1259690960869,4,1.3873846912756562,,,,,,,,,,,,,,,,,,,,189616,2022-09-07_13h53.00.444,palt,2022.2.2,59.343074595539534,
,,,,,,,,,,,3,0,3,0,,,,,,,,,,,,,,,,,,,,,,,,,,,,,,,,,,,,,,,,,,,,,,,,,,,1004.5664801038802,1004.5664801038802,4,26.83869726303965,,,189616,2022-09-07_13h53.00.444,palt,2022.2.2,59.343074595539534,
,,,,,,,,,,,,,,,,,,,,,,,,,,,,,,,,,,,,,,,,,,,,,,,,,,,,,,,,,,,,,,,,,,,,,,1031.4294071467593,,,,,,
