itemno,wordA,wordB,enc_gyak.thisRepN,enc_gyak.thisTrialN,enc_gyak.thisN,enc_gyak.thisIndex,rec_gyak.thisRepN,rec_gyak.thisTrialN,rec_gyak.thisN,rec_gyak.thisIndex,repeat_task.thisRepN,repeat_task.thisTrialN,repeat_task.thisN,repeat_task.thisIndex,enc_loop.thisRepN,enc_loop.thisTrialN,enc_loop.thisN,enc_loop.thisIndex,test_loop.thisRepN,test_loop.thisTrialN,test_loop.thisN,test_loop.thisIndex,int.started,int_key.started,int_key.keys,int_key.rt,prepare_gyak_text.started,fix.started,word1.started,word2.started,gykrec_inst.started,gyakrec_inst.started,gyakrec_inst.keys,gyakrec_inst.rt,cueword1.started,cue_resp.started,cue_cont_text.started,cue_space.started,cueword,cue_resp.keys,cue_resp.rt,test_ansbox.started,ans_text.started,ans_continue.started,test_ansbox.text,ans_continue.keys,ans_continue.rt,feedback_text.started,feedback_cont.started,feedback_cont.keys,feedback_cont.rt,main_prep.started,main_prep_resp.started,main_prep_resp.keys,main_prep_resp.rt,preparation.started,break_text.started,key_resp.started,key_resp.keys,key_resp.rt,test_instruction.started,test_i_key.started,test_i_key.keys,test_i_key.rt,rep_routine.started,encrep_textbox.started,rep_routine.keys,rep_routine.rt,fix.stopped,Résztvevő kódja,date,expName,psychopyVersion,frameRate,
,,,,,,,,,,,,,,,,,,,,,,,38.63807159848511,38.63807159848511,4,192.32876593153924,,,,,,,,,,,,,,,,,,,,,,,,,,,,,,,,,,,,,,,,,,,,414789,2022-08-30_14h47.38.606,palt,2022.2.2,59.22753283170554,
2,lepke,szintetizátor,0,0,0,1,,,,,,,,,,,,,,,,,,,,,231.03202712722123,234.07414423394948,235.0609407685697,235.0609407685697,,,,,,,,,,,,,,,,,,,,,,,,,,,,,,,,,,,,,,,,414789,2022-08-30_14h47.38.606,palt,2022.2.2,59.22753283170554,
4,kard,harcsa,0,1,1,3,,,,,,,,,,,,,,,,,,,,,,241.04931503906846,242.05968585796654,242.05968585796654,,,,,,,,,,,,,,,,,,,,,,,,,,,,,,,,,,,,,,,,414789,2022-08-30_14h47.38.606,palt,2022.2.2,59.22753283170554,
3,majoránna,szikla,0,2,2,2,,,,,,,,,,,,,,,,,,,,,,248.04586411174387,249.05685165710747,249.05685165710747,,,,,,,,,,,,,,,,,,,,,,,,,,,,,,,,,,,,,,,,414789,2022-08-30_14h47.38.606,palt,2022.2.2,59.22753283170554,
1,sapka,beton,0,3,3,0,,,,,,,,,,,,,,,,,,,,,,255.0485704895109,256.0664962762967,256.0664962762967,,,,,,,,,,,,,,,,,,,,,,,,,,,,,,,,,,,,,,,,414789,2022-08-30_14h47.38.606,palt,2022.2.2,59.22753283170554,
,,,,,,,,,,,,,,,,,,,,,,,,,,,,,,,262.03220968786627,262.03220968786627,4,10.000603806227446,,,,,,,,,,,,,,,,,,,,,,,,,,,,,,,,,,,,414789,2022-08-30_14h47.38.606,palt,2022.2.2,59.22753283170554,
1,sapka,beton,,,,,0,0,0,0,,,,,,,,,,,,,,,,,,272.0730681521818,,,,,,,273.0991668757051,273.0991668757051,273.0991668757051,273.0991668757051,beton,4,5.393390572629869,278.5413265293464,278.5413265293464,278.5413265293464, sapka,down,2.299890854395926,280.8933353815228,280.8933353815228,4,4.6730332132428885,,,,,,,,,,,,,,,,,,,414789,2022-08-30_14h47.38.606,palt,2022.2.2,59.22753283170554,
2,lepke,szintetizátor,,,,,0,1,1,1,,,,,,,,,,,,,,,,,,285.59530324302614,,,,,,,286.6200316725299,286.6200316725299,286.6200316725299,286.6200316725299,lepke,4,5.56151036452502,292.21463359706104,292.21463359706104,292.21463359706104, szintetizátor,down,7.090510155074298,299.3409609720111,299.3409609720111,4,1.829270695336163,,,,,,,,,,,,,,,,,,,414789,2022-08-30_14h47.38.606,palt,2022.2.2,59.22753283170554,
3,majoránna,szikla,,,,,0,2,2,2,,,,,,,,,,,,,,,,,,301.20271738711745,,,,,,,302.23146743979305,302.23146743979305,302.23146743979305,302.23146743979305,majoránna,None,,317.2204954447225,317.2204954447225,317.2204954447225, ,down,1.9079988533630967,319.17007539980114,319.17007539980114,4,7.5521860821172595,,,,,,,,,,,,,,,,,,,414789,2022-08-30_14h47.38.606,palt,2022.2.2,59.22753283170554,
4,kard,harcsa,,,,,0,3,3,3,,,,,,,,,,,,,,,,,,326.7471735738218,,,,,,,327.76923823263496,327.76923823263496,327.76923823263496,327.76923823263496,harcsa,None,,342.7648620624095,342.7648620624095,342.7648620624095, ,down,1.4359399788081646,344.2269391864538,344.2269391864538,4,9.420940140262246,,,,,,,,,,,,,,,,,,,414789,2022-08-30_14h47.38.606,palt,2022.2.2,59.22753283170554,
,,,,,,,,,,,,,,,,,,,,,,,,,,,,,,,,,,,,,,,,,,,,,,,,,,,,353.6730635492131,353.6730635492131,4,13.813089344650507,,,,,,,,,,,,,,,414789,2022-08-30_14h47.38.606,palt,2022.2.2,59.22753283170554,
6,menta,triatlon,,,,,,,,,0,0,0,0,0,0,0,5,,,,,,,,,,371.56892990134656,372.53155750688165,372.53155750688165,,,,,,,,,,,,,,,,,,,,,,,,,,367.51419402007014,,,,,,,,,,,,,,414789,2022-08-30_14h47.38.606,palt,2022.2.2,59.22753283170554,
5,karton,hentes,,,,,,,,,0,0,0,0,0,1,1,4,,,,,,,,,,378.5150060579181,379.5439949641004,379.5439949641004,,,,,,,,,,,,,,,,,,,,,,,,,,,,,,,,,,,,,,,,414789,2022-08-30_14h47.38.606,palt,2022.2.2,59.22753283170554,
1,bagoly,kirakó,,,,,,,,,0,0,0,0,0,2,2,0,,,,,,,,,,385.5245614182204,386.53080953657627,386.53080953657627,,,,,,,,,,,,,,,,,,,,,,,,,,,,,,,,,,,,,,,,414789,2022-08-30_14h47.38.606,palt,2022.2.2,59.22753283170554,
2,kötény,tisztás,,,,,,,,,0,0,0,0,0,3,3,1,,,,,,,,,,392.51385626755655,393.5350613053888,393.5350613053888,,,,,,,,,,,,,,,,,,,,,,,,,,,,,,,,,,,,,,,,414789,2022-08-30_14h47.38.606,palt,2022.2.2,59.22753283170554,
10,málna,dominó,,,,,,,,,0,0,0,0,0,4,4,9,,,,,,,,,,399.5245315618813,400.5341006061062,400.5341006061062,,,,,,,,,,,,,,,,,,,,,,,,,,,,,,,,,,,,,,,,414789,2022-08-30_14h47.38.606,palt,2022.2.2,59.22753283170554,
4,mocsár,ananász,,,,,,,,,0,0,0,0,0,5,5,3,,,,,,,,,,406.51329210214317,407.53396842908114,407.53396842908114,,,,,,,,,,,,,,,,,,,,,,,,,,,,,,,,,,,,,,,,414789,2022-08-30_14h47.38.606,palt,2022.2.2,59.22753283170554,
9,szilva,kecske,,,,,,,,,0,0,0,0,0,6,6,8,,,,,,,,,,413.5300099393353,414.5460706204176,414.5460706204176,,,,,,,,,,,,,,,,,,,,,,,,,,,,,,,,,,,,,,,,414789,2022-08-30_14h47.38.606,palt,2022.2.2,59.22753283170554,
3,fogó,limonádé,,,,,,,,,0,0,0,0,0,7,7,2,,,,,,,,,,420.519676130265,421.53199695888907,421.53199695888907,,,,,,,,,,,,,,,,,,,,,,,,,,,,,,,,,,,,,,,,414789,2022-08-30_14h47.38.606,palt,2022.2.2,59.22753283170554,
7,csavarhúzó,hering,,,,,,,,,0,0,0,0,0,8,8,6,,,,,,,,,,427.51444313675165,428.5329007441178,428.5329007441178,,,,,,,,,,,,,,,,,,,,,,,,,,,,,,,,,,,,,,,,414789,2022-08-30_14h47.38.606,palt,2022.2.2,59.22753283170554,
8,szalvéta,puska,,,,,,,,,0,0,0,0,0,9,9,7,,,,,,,,,,434.5126215722412,435.5351259941235,435.5351259941235,,,,,,,,,,,,,,,,,,,,,,,,,,,,,,,,,,,,,,,,414789,2022-08-30_14h47.38.606,palt,2022.2.2,59.22753283170554,
9,szilva,kecske,,,,,,,,,0,0,0,0,,,,,0,0,0,8,,,,,,453.3848983999342,,,,,,,454.3798712929711,454.3798712929711,454.3798712929711,454.3798712929711,kecske,4,4.883259849622846,459.30363025236875,459.30363025236875,459.30363025236875,szilva,down,2.9114460488781333,462.24930956494063,462.24930956494063,4,6.6396261509507895,,,,,449.3551459731534,441.53505042009056,441.53505042009056,u,3.4489820320159197,445.01868339721113,445.01868339721113,4,4.305471864528954,,,,,,414789,2022-08-30_14h47.38.606,palt,2022.2.2,59.22753283170554,
5,karton,hentes,,,,,,,,,0,0,0,0,,,,,0,1,1,4,,,,,,468.92363859992474,,,,,,,469.94679800234735,469.94679800234735,469.94679800234735,469.94679800234735,karton,4,9.856346289627254,479.8351519946009,479.8351519946009,479.8351519946009, harcsa,down,2.651900950819254,482.52946287952363,482.52946287952363,4,8.571819604374468,,,,,,,,,,,,,,,,,,,414789,2022-08-30_14h47.38.606,palt,2022.2.2,59.22753283170554,
1,bagoly,kirakó,,,,,,,,,0,0,0,0,,,,,0,2,2,0,,,,,,491.119612746872,,,,,,,492.15072489343584,492.15072489343584,492.15072489343584,492.15072489343584,kirakó,4,5.33538974635303,497.536040042527,497.536040042527,497.536040042527, bagoly,down,2.487189789302647,500.06231479533017,500.06231479533017,4,7.114745328202844,,,,,,,,,,,,,,,,,,,414789,2022-08-30_14h47.38.606,palt,2022.2.2,59.22753283170554,
8,szalvéta,puska,,,,,,,,,0,0,0,0,,,,,0,3,3,7,,,,,,507.19730089977384,,,,,,,508.2161239394918,508.2161239394918,508.2161239394918,508.2161239394918,puska,None,,523.2186356270686,523.2186356270686,523.2186356270686, szalag,down,3.0603907415643334,526.3142290394753,526.3142290394753,4,3.450507517904043,,,,,,,,,,,,,,,,,,,414789,2022-08-30_14h47.38.606,palt,2022.2.2,59.22753283170554,
7,csavarhúzó,hering,,,,,,,,,0,0,0,0,,,,,0,4,4,6,,,,,,529.7854796089232,,,,,,,530.8100848793983,530.8100848793983,530.8100848793983,530.8100848793983,hering,None,,545.8046065019444,545.8046065019444,545.8046065019444, ,down,2.025577307678759,547.8500084588304,547.8500084588304,4,1.76571280695498,,,,,,,,,,,,,,,,,,,414789,2022-08-30_14h47.38.606,palt,2022.2.2,59.22753283170554,
10,málna,dominó,,,,,,,,,0,0,0,0,,,,,0,5,5,9,,,,,,549.649915965274,,,,,,,550.6784380506724,550.6784380506724,550.6784380506724,550.6784380506724,málna,None,,565.6629875646904,565.6629875646904,565.6629875646904, ,down,6.631306419149041,572.3256663000211,572.3256663000211,4,3.420084562152624,,,,,,,,,,,,,,,,,,,414789,2022-08-30_14h47.38.606,palt,2022.2.2,59.22753283170554,
6,menta,triatlon,,,,,,,,,0,0,0,0,,,,,0,6,6,5,,,,,,575.7780229197815,,,,,,,576.8009468894452,576.8009468894452,576.8009468894452,576.8009468894452,triatlon,None,,591.8069266099483,591.8069266099483,591.8069266099483, ,down,1.542271819896996,593.3764847442508,593.3764847442508,4,4.345210705883801,,,,,,,,,,,,,,,,,,,414789,2022-08-30_14h47.38.606,palt,2022.2.2,59.22753283170554,
3,fogó,limonádé,,,,,,,,,0,0,0,0,,,,,0,7,7,2,,,,,,597.7455389238894,,,,,,,598.7651553414762,598.7651553414762,598.7651553414762,598.7651553414762,fogó,4,11.268970599398017,610.0633236998692,610.0633236998692,610.0633236998692, lapát,down,4.021791738457978,614.106391553767,614.106391553767,4,2.783769216388464,,,,,,,,,,,,,,,,,,,414789,2022-08-30_14h47.38.606,palt,2022.2.2,59.22753283170554,
4,mocsár,ananász,,,,,,,,,0,0,0,0,,,,,0,8,8,3,,,,,,616.9170872503892,,,,,,,617.9432982476428,617.9432982476428,617.9432982476428,617.9432982476428,ananász,None,,632.9258274631575,632.9258274631575,632.9258274631575, ,down,2.551528302952647,635.4949732031673,635.4949732031673,4,2.193983226083219,,,,,,,,,,,,,,,,,,,414789,2022-08-30_14h47.38.606,palt,2022.2.2,59.22753283170554,
2,kötény,tisztás,,,,,,,,,0,0,0,0,,,,,0,9,9,1,,,,,,637.7213308084756,,,,,,,638.74495485425,638.74495485425,638.74495485425,638.74495485425,kötény,4,9.814660237170756,648.6039734790102,648.6039734790102,648.6039734790102, ,down,1.25672378949821,649.8912762077525,649.8912762077525,4,4.739146330393851,,,,,,,,,,,,,,,,,,,414789,2022-08-30_14h47.38.606,palt,2022.2.2,59.22753283170554,
,,,,,,,,,,,0,0,0,0,,,,,,,,,,,,,,,,,,,,,,,,,,,,,,,,,,,,,,,,,,,,,,,,,,,654.6975083407015,654.6975083407015,4,20.810401315800846,,414789,2022-08-30_14h47.38.606,palt,2022.2.2,59.22753283170554,
3,fogó,limonádé,,,,,,,,,1,0,1,0,0,0,0,2,,,,,,,,,,679.5571887874976,680.5608518207446,680.5608518207446,,,,,,,,,,,,,,,,,,,,,,,,,,675.53383158613,,,,,,,,,,,,,,414789,2022-08-30_14h47.38.606,palt,2022.2.2,59.22753283170554,
8,szalvéta,puska,,,,,,,,,1,0,1,0,0,1,1,7,,,,,,,,,,686.5408065263182,687.5605255756527,687.5605255756527,,,,,,,,,,,,,,,,,,,,,,,,,,,,,,,,,,,,,,,,414789,2022-08-30_14h47.38.606,palt,2022.2.2,59.22753283170554,
1,bagoly,kirakó,,,,,,,,,1,0,1,0,0,2,2,0,,,,,,,,,,693.5400308761746,694.5564899565652,694.5564899565652,,,,,,,,,,,,,,,,,,,,,,,,,,,,,,,,,,,,,,,,414789,2022-08-30_14h47.38.606,palt,2022.2.2,59.22753283170554,
9,szilva,kecske,,,,,,,,,1,0,1,0,0,3,3,8,,,,,,,,,,700.5439570210874,701.5659286892042,701.5659286892042,,,,,,,,,,,,,,,,,,,,,,,,,,,,,,,,,,,,,,,,414789,2022-08-30_14h47.38.606,palt,2022.2.2,59.22753283170554,
4,mocsár,ananász,,,,,,,,,1,0,1,0,0,4,4,3,,,,,,,,,,707.5348373809829,708.5652531832457,708.5652531832457,,,,,,,,,,,,,,,,,,,,,,,,,,,,,,,,,,,,,,,,414789,2022-08-30_14h47.38.606,palt,2022.2.2,59.22753283170554,
6,menta,triatlon,,,,,,,,,1,0,1,0,0,5,5,5,,,,,,,,,,714.5345916850492,715.5524446964264,715.5524446964264,,,,,,,,,,,,,,,,,,,,,,,,,,,,,,,,,,,,,,,,414789,2022-08-30_14h47.38.606,palt,2022.2.2,59.22753283170554,
10,málna,dominó,,,,,,,,,1,0,1,0,0,6,6,9,,,,,,,,,,721.5482165645808,722.5653082318604,722.5653082318604,,,,,,,,,,,,,,,,,,,,,,,,,,,,,,,,,,,,,,,,414789,2022-08-30_14h47.38.606,palt,2022.2.2,59.22753283170554,
7,csavarhúzó,hering,,,,,,,,,1,0,1,0,0,7,7,6,,,,,,,,,,728.5376165332273,729.5606076810509,729.5606076810509,,,,,,,,,,,,,,,,,,,,,,,,,,,,,,,,,,,,,,,,414789,2022-08-30_14h47.38.606,palt,2022.2.2,59.22753283170554,
2,kötény,tisztás,,,,,,,,,1,0,1,0,0,8,8,1,,,,,,,,,,735.5350404679775,736.5489539606497,736.5489539606497,,,,,,,,,,,,,,,,,,,,,,,,,,,,,,,,,,,,,,,,414789,2022-08-30_14h47.38.606,palt,2022.2.2,59.22753283170554,
5,karton,hentes,,,,,,,,,1,0,1,0,0,9,9,4,,,,,,,,,,742.5504278196022,743.5601840903983,743.5601840903983,,,,,,,,,,,,,,,,,,,,,,,,,,,,,,,,,,,,,,,,414789,2022-08-30_14h47.38.606,palt,2022.2.2,59.22753283170554,
5,karton,hentes,,,,,,,,,1,0,1,0,,,,,0,0,0,4,,,,,,761.3905972810462,,,,,,,762.3977936580777,762.3977936580777,762.3977936580777,762.3977936580777,karton,4,9.978687184862792,772.4099829318002,772.4099829318002,772.4099829318002, hering,down,2.730122168548405,775.1566691584885,775.1566691584885,4,8.184208295308053,,,,,757.3656222242862,749.5373353837058,749.5373353837058,u,1.6664694240316749,751.2359826304018,751.2359826304018,4,6.099766327999532,,,,,,414789,2022-08-30_14h47.38.606,palt,2022.2.2,59.22753283170554,
7,csavarhúzó,hering,,,,,,,,,1,0,1,0,,,,,0,1,1,6,,,,,,783.3712113192305,,,,,,,784.394204955548,784.394204955548,784.394204955548,784.394204955548,hering,4,7.969378453679383,792.4138328796253,792.4138328796253,792.4138328796253, csavarhúzó,down,3.4939324082806706,795.9578001638874,795.9578001638874,4,1.8742919806391,,,,,,,,,,,,,,,,,,,414789,2022-08-30_14h47.38.606,palt,2022.2.2,59.22753283170554,
10,málna,dominó,,,,,,,,,1,0,1,0,,,,,0,2,2,9,,,,,,797.8609745446593,,,,,,,798.8831664053723,798.8831664053723,798.8831664053723,798.8831664053723,málna,None,,813.8751035649329,813.8751035649329,813.8751035649329, 4,down,1.7284150552004576,815.6486116051674,815.6486116051674,4,2.7332378309220076,,,,,,,,,,,,,,,,,,,414789,2022-08-30_14h47.38.606,palt,2022.2.2,59.22753283170554,
6,menta,triatlon,,,,,,,,,1,0,1,0,,,,,0,3,3,5,,,,,,818.4010769529268,,,,,,,819.4190885769203,819.4190885769203,819.4190885769203,819.4190885769203,triatlon,None,,834.4227177100256,834.4227177100256,834.4227177100256, ,down,2.316013114526868,836.7775952853262,836.7775952853262,4,5.1024167239665985,,,,,,,,,,,,,,,,,,,414789,2022-08-30_14h47.38.606,palt,2022.2.2,59.22753283170554,
3,fogó,limonádé,,,,,,,,,1,0,1,0,,,,,0,4,4,2,,,,,,841.8987120594829,,,,,,,842.9298366466537,842.9298366466537,842.9298366466537,842.9298366466537,fogó,None,,857.9232467319816,857.9232467319816,857.9232467319816, ,down,1.8393087377771735,859.791512821801,859.791512821801,4,2.298170367255807,,,,,,,,,,,,,,,,,,,414789,2022-08-30_14h47.38.606,palt,2022.2.2,59.22753283170554,
9,szilva,kecske,,,,,,,,,1,0,1,0,,,,,0,5,5,8,,,,,,862.1160035179928,,,,,,,863.1423868117854,863.1423868117854,863.1423868117854,863.1423868117854,kecske,4,4.369409492239356,867.5474829003215,867.5474829003215,867.5474829003215, szilva,down,3.862929050810635,871.4727866295725,871.4727866295725,4,2.5558055751025677,,,,,,,,,,,,,,,,,,,414789,2022-08-30_14h47.38.606,palt,2022.2.2,59.22753283170554,
8,szalvéta,puska,,,,,,,,,1,0,1,0,,,,,0,6,6,7,,,,,,874.0484264940023,,,,,,,875.0752672785893,875.0752672785893,875.0752672785893,875.0752672785893,puska,None,,890.0692614335567,890.0692614335567,890.0692614335567, ,down,1.0845671351999044,891.181261989288,891.181261989288,4,0.9743203446269035,,,,,,,,,,,,,,,,,,,414789,2022-08-30_14h47.38.606,palt,2022.2.2,59.22753283170554,
4,mocsár,ananász,,,,,,,,,1,0,1,0,,,,,0,7,7,3,,,,,,892.1810047868639,,,,,,,893.2124693030491,893.2124693030491,893.2124693030491,893.2124693030491,ananász,4,7.56867128610611,900.8241930622607,900.8241930622607,900.8241930622607, mocsár,down,2.474499794654548,903.3562108594924,903.3562108594924,4,4.234580134041607,,,,,,,,,,,,,,,,,,,414789,2022-08-30_14h47.38.606,palt,2022.2.2,59.22753283170554,
1,bagoly,kirakó,,,,,,,,,1,0,1,0,,,,,0,8,8,0,,,,,,907.6143147526309,,,,,,,908.63893930614,908.63893930614,908.63893930614,908.63893930614,kirakó,None,,923.6218187147751,923.6218187147751,923.6218187147751, balta,down,3.0999647499993443,926.7759721437469,926.7759721437469,4,6.161606838926673,,,,,,,,,,,,,,,,,,,414789,2022-08-30_14h47.38.606,palt,2022.2.2,59.22753283170554,
2,kötény,tisztás,,,,,,,,,1,0,1,0,,,,,0,9,9,1,,,,,,932.9631637800485,,,,,,,933.9912967970595,933.9912967970595,933.9912967970595,933.9912967970595,kötény,4,9.595439607277513,943.6076564174145,943.6076564174145,943.6076564174145, tinta,down,2.3455002531409264,945.979268935509,945.979268935509,4,5.976395067758858,,,,,,,,,,,,,,,,,,,414789,2022-08-30_14h47.38.606,palt,2022.2.2,59.22753283170554,
,,,,,,,,,,,1,0,1,0,,,,,,,,,,,,,,,,,,,,,,,,,,,,,,,,,,,,,,,,,,,,,,,,,,,952.0170142259449,952.0170142259449,4,114.69286826811731,,414789,2022-08-30_14h47.38.606,palt,2022.2.2,59.22753283170554,
4,mocsár,ananász,,,,,,,,,2,0,2,0,0,0,0,3,,,,,,,,,,1070.7522212071344,1071.7560680452734,1071.7560680452734,,,,,,,,,,,,,,,,,,,,,,,,,,1066.736013730988,,,,,,,,,,,,,,414789,2022-08-30_14h47.38.606,palt,2022.2.2,59.22753283170554,
10,málna,dominó,,,,,,,,,2,0,2,0,0,1,1,9,,,,,,,,,,1077.7515335716307,1078.7566546034068,1078.7566546034068,,,,,,,,,,,,,,,,,,,,,,,,,,,,,,,,,,,,,,,,414789,2022-08-30_14h47.38.606,palt,2022.2.2,59.22753283170554,
9,szilva,kecske,,,,,,,,,2,0,2,0,0,2,2,8,,,,,,,,,,1084.7360398555174,1085.7558416323736,1085.7558416323736,,,,,,,,,,,,,,,,,,,,,,,,,,,,,,,,,,,,,,,,414789,2022-08-30_14h47.38.606,palt,2022.2.2,59.22753283170554,
8,szalvéta,puska,,,,,,,,,2,0,2,0,0,3,3,7,,,,,,,,,,1091.7379942201078,1092.7639825362712,1092.7639825362712,,,,,,,,,,,,,,,,,,,,,,,,,,,,,,,,,,,,,,,,414789,2022-08-30_14h47.38.606,palt,2022.2.2,59.22753283170554,
7,csavarhúzó,hering,,,,,,,,,2,0,2,0,0,4,4,6,,,,,,,,,,1098.7356781549752,1099.7558895274997,1099.7558895274997,,,,,,,,,,,,,,,,,,,,,,,,,,,,,,,,,,,,,,,,414789,2022-08-30_14h47.38.606,palt,2022.2.2,59.22753283170554,
6,menta,triatlon,,,,,,,,,2,0,2,0,0,5,5,5,,,,,,,,,,1105.7381180003285,1106.7581772906706,1106.7581772906706,,,,,,,,,,,,,,,,,,,,,,,,,,,,,,,,,,,,,,,,414789,2022-08-30_14h47.38.606,palt,2022.2.2,59.22753283170554,
2,kötény,tisztás,,,,,,,,,2,0,2,0,0,6,6,1,,,,,,,,,,1112.7354088239372,1113.7557051004842,1113.7557051004842,,,,,,,,,,,,,,,,,,,,,,,,,,,,,,,,,,,,,,,,414789,2022-08-30_14h47.38.606,palt,2022.2.2,59.22753283170554,
1,bagoly,kirakó,,,,,,,,,2,0,2,0,0,7,7,0,,,,,,,,,,1119.7398422202095,1120.7686274163425,1120.7686274163425,,,,,,,,,,,,,,,,,,,,,,,,,,,,,,,,,,,,,,,,414789,2022-08-30_14h47.38.606,palt,2022.2.2,59.22753283170554,
3,fogó,limonádé,,,,,,,,,2,0,2,0,0,8,8,2,,,,,,,,,,1126.7376605095342,1127.7566123064607,1127.7566123064607,,,,,,,,,,,,,,,,,,,,,,,,,,,,,,,,,,,,,,,,414789,2022-08-30_14h47.38.606,palt,2022.2.2,59.22753283170554,
5,karton,hentes,,,,,,,,,2,0,2,0,0,9,9,4,,,,,,,,,,1133.7465136181563,1134.7739751711488,1134.7739751711488,,,,,,,,,,,,,,,,,,,,,,,,,,,,,,,,,,,,,,,,414789,2022-08-30_14h47.38.606,palt,2022.2.2,59.22753283170554,
8,szalvéta,puska,,,,,,,,,2,0,2,0,,,,,0,0,0,7,,,,,,1153.5972678707913,,,,,,,1154.5932425148785,1154.5932425148785,1154.5932425148785,1154.5932425148785,puska,None,,1169.5913466196507,1169.5913466196507,1169.5913466196507, ,down,1.415186833590269,1171.0386033570394,1171.0386033570394,4,3.6681603649631143,,,,,1149.574054975994,1140.7464744308963,1140.7464744308963,u,6.357417085207999,1147.1352489041165,1147.1352489041165,4,2.4122182773426175,,,,,,414789,2022-08-30_14h47.38.606,palt,2022.2.2,59.22753283170554,
10,málna,dominó,,,,,,,,,2,0,2,0,,,,,0,1,1,9,,,,,,1174.7307776277885,,,,,,,1175.7605754612014,1175.7605754612014,1175.7605754612014,1175.7605754612014,málna,4,4.226489302702248,1180.0367814814672,1180.0367814814672,1180.0367814814672, dominó,down,2.5700574424117804,1182.6684603439644,1182.6684603439644,4,9.388923276215792,,,,,,,,,,,,,,,,,,,414789,2022-08-30_14h47.38.606,palt,2022.2.2,59.22753283170554,
2,kötény,tisztás,,,,,,,,,2,0,2,0,,,,,0,2,2,1,,,,,,1192.084265314974,,,,,,,1193.1046113539487,1193.1046113539487,1193.1046113539487,1193.1046113539487,kötény,4,8.006445127539337,1201.140491538681,1201.140491538681,1201.140491538681, tisztás,down,2.457718200981617,1203.6255361745134,1203.6255361745134,4,8.785902719944715,,,,,,,,,,,,,,,,,,,414789,2022-08-30_14h47.38.606,palt,2022.2.2,59.22753283170554,
5,karton,hentes,,,,,,,,,2,0,2,0,,,,,0,3,3,4,,,,,,1212.438474226743,,,,,,,1213.462200904265,1213.462200904265,1213.462200904265,1213.462200904265,karton,None,,1228.466633678414,1228.466633678414,1228.466633678414, ,down,1.4199489634484053,1229.9375197486952,1229.9375197486952,4,1.1993250725790858,,,,,,,,,,,,,,,,,,,414789,2022-08-30_14h47.38.606,palt,2022.2.2,59.22753283170554,
3,fogó,limonádé,,,,,,,,,2,0,2,0,,,,,0,4,4,2,,,,,,1231.1624069157988,,,,,,,1232.1881504692137,1232.1881504692137,1232.1881504692137,1232.1881504692137,fogó,None,,1247.1710286345333,1247.1710286345333,1247.1710286345333, ,down,0.9871938321739435,1248.1797274835408,1248.1797274835408,4,3.6854551201686263,,,,,,,,,,,,,,,,,,,414789,2022-08-30_14h47.38.606,palt,2022.2.2,59.22753283170554,
6,menta,triatlon,,,,,,,,,2,0,2,0,,,,,0,5,5,5,,,,,,1251.8841327019036,,,,,,,1252.9081790940836,1252.9081790940836,1252.9081790940836,1252.9081790940836,triatlon,None,,1267.9044647449628,1267.9044647449628,1267.9044647449628, ,down,1.1330828871577978,1269.0551451649517,1269.0551451649517,4,1.9582581082358956,,,,,,,,,,,,,,,,,,,414789,2022-08-30_14h47.38.606,palt,2022.2.2,59.22753283170554,
9,szilva,kecske,,,,,,,,,2,0,2,0,,,,,0,6,6,8,,,,,,1271.045433057472,,,,,,,1272.0665671853349,1272.0665671853349,1272.0665671853349,1272.0665671853349,kecske,None,,1287.0577405132353,1287.0577405132353,1287.0577405132353, ,down,1.6752398032695055,1288.7750310376287,1288.7750310376287,4,5.552187948487699,,,,,,,,,,,,,,,,,,,414789,2022-08-30_14h47.38.606,palt,2022.2.2,59.22753283170554,
1,bagoly,kirakó,,,,,,,,,2,0,2,0,,,,,0,7,7,0,,,,,,1294.3499506115913,,,,,,,1295.3731939857826,1295.3731939857826,1295.3731939857826,1295.3731939857826,kirakó,4,6.21878878492862,1301.620918973349,1301.620918973349,1301.620918973349, bagoly,down,3.3681645328179,1305.0363202588633,1305.0363202588633,4,3.4825946697965264,,,,,,,,,,,,,,,,,,,414789,2022-08-30_14h47.38.606,palt,2022.2.2,59.22753283170554,
7,csavarhúzó,hering,,,,,,,,,2,0,2,0,,,,,0,8,8,6,,,,,,1308.5434790039435,,,,,,,1309.5730118602514,1309.5730118602514,1309.5730118602514,1309.5730118602514,hering,4,4.583643755875528,1314.185021745041,1314.185021745041,1314.185021745041, csavarhúzó,down,3.140263403765857,1317.3641035798937,1317.3641035798937,4,2.523850290104747,,,,,,,,,,,,,,,,,,,414789,2022-08-30_14h47.38.606,palt,2022.2.2,59.22753283170554,
4,mocsár,ananász,,,,,,,,,2,0,2,0,,,,,0,9,9,3,,,,,,1319.9088701503351,,,,,,,1320.9343645889312,1320.9343645889312,1320.9343645889312,1320.9343645889312,ananász,None,,1335.9297386799008,1335.9297386799008,1335.9297386799008, ,down,1.1231564963236451,1337.1453239563853,1337.1453239563853,4,8.945784574374557,,,,,,,,,,,,,,,,,,,414789,2022-08-30_14h47.38.606,palt,2022.2.2,59.22753283170554,
,,,,,,,,,,,2,0,2,0,,,,,,,,,,,,,,,,,,,,,,,,,,,,,,,,,,,,,,,,,,,,,,,,,,,1346.1452421611175,1346.1452421611175,4,34.42630064673722,,414789,2022-08-30_14h47.38.606,palt,2022.2.2,59.22753283170554,
6,menta,triatlon,,,,,,,,,3,0,3,0,0,0,0,5,,,,,,,,,,1384.6189742507413,1385.6174406781793,1385.6174406781793,,,,,,,,,,,,,,,,,,,,,,,,,,1380.5981909371912,,,,,,,,,,,,,,414789,2022-08-30_14h47.38.606,palt,2022.2.2,59.22753283170554,
8,szalvéta,puska,,,,,,,,,3,0,3,0,0,1,1,7,,,,,,,,,,1391.6097043938935,1392.6258148364723,1392.6258148364723,,,,,,,,,,,,,,,,,,,,,,,,,,,,,,,,,,,,,,,,414789,2022-08-30_14h47.38.606,palt,2022.2.2,59.22753283170554,
2,kötény,tisztás,,,,,,,,,3,0,3,0,0,2,2,1,,,,,,,,,,1398.60191586148,1399.622026156634,1399.622026156634,,,,,,,,,,,,,,,,,,,,,,,,,,,,,,,,,,,,,,,,414789,2022-08-30_14h47.38.606,palt,2022.2.2,59.22753283170554,
10,málna,dominó,,,,,,,,,3,0,3,0,0,3,3,9,,,,,,,,,,1405.6117750750855,1406.6218986436725,1406.6218986436725,,,,,,,,,,,,,,,,,,,,,,,,,,,,,,,,,,,,,,,,414789,2022-08-30_14h47.38.606,palt,2022.2.2,59.22753283170554,
5,karton,hentes,,,,,,,,,3,0,3,0,0,4,4,4,,,,,,,,,,1412.5995494136587,1413.6252065077424,1413.6252065077424,,,,,,,,,,,,,,,,,,,,,,,,,,,,,,,,,,,,,,,,414789,2022-08-30_14h47.38.606,palt,2022.2.2,59.22753283170554,
1,bagoly,kirakó,,,,,,,,,3,0,3,0,0,5,5,0,,,,,,,,,,1419.601603610441,1420.6515792282298,1420.6515792282298,,,,,,,,,,,,,,,,,,,,,,,,,,,,,,,,,,,,,,,,414789,2022-08-30_14h47.38.606,palt,2022.2.2,59.22753283170554,
9,szilva,kecske,,,,,,,,,3,0,3,0,0,6,6,8,,,,,,,,,,1426.5987662989646,1427.6183625012636,1427.6183625012636,,,,,,,,,,,,,,,,,,,,,,,,,,,,,,,,,,,,,,,,414789,2022-08-30_14h47.38.606,palt,2022.2.2,59.22753283170554,
4,mocsár,ananász,,,,,,,,,3,0,3,0,0,7,7,3,,,,,,,,,,1433.6116746198386,1434.6222217790782,1434.6222217790782,,,,,,,,,,,,,,,,,,,,,,,,,,,,,,,,,,,,,,,,414789,2022-08-30_14h47.38.606,palt,2022.2.2,59.22753283170554,
7,csavarhúzó,hering,,,,,,,,,3,0,3,0,0,8,8,6,,,,,,,,,,1440.6002162108198,1441.6229308741167,1441.6229308741167,,,,,,,,,,,,,,,,,,,,,,,,,,,,,,,,,,,,,,,,414789,2022-08-30_14h47.38.606,palt,2022.2.2,59.22753283170554,
3,fogó,limonádé,,,,,,,,,3,0,3,0,0,9,9,2,,,,,,,,,,1447.608203788288,1448.6355387624353,1448.6355387624353,,,,,,,,,,,,,,,,,,,,,,,,,,,,,,,,,,,,,,,,414789,2022-08-30_14h47.38.606,palt,2022.2.2,59.22753283170554,
1,bagoly,kirakó,,,,,,,,,3,0,3,0,,,,,0,0,0,0,,,,,,1463.5988938119262,,,,,,,1464.586354656145,1464.586354656145,1464.586354656145,1464.586354656145,kirakó,4,3.516411949880421,1468.1342241382226,1468.1342241382226,1468.1342241382226, bagoly,down,2.613492283038795,1470.7762237470597,1470.7762237470597,4,2.3559833457693458,,,,,1459.5669494122267,1454.5997111368924,1454.5997111368924,u,2.1958651253953576,1456.8289160057902,1456.8289160057902,4,2.707874638028443,,,,,,414789,2022-08-30_14h47.38.606,palt,2022.2.2,59.22753283170554,
9,szilva,kecske,,,,,,,,,3,0,3,0,,,,,0,1,1,8,,,,,,1473.1596601065248,,,,,,,1474.1831000363454,1474.1831000363454,1474.1831000363454,1474.1831000363454,kecske,4,4.471326285973191,1478.6836455417797,1478.6836455417797,1478.6836455417797, szilva,down,2.5430745277553797,1481.2620334587991,1481.2620334587991,4,1.7342566875740886,,,,,,,,,,,,,,,,,,,414789,2022-08-30_14h47.38.606,palt,2022.2.2,59.22753283170554,
3,fogó,limonádé,,,,,,,,,3,0,3,0,,,,,0,2,2,2,,,,,,1483.0257342234254,,,,,,,1484.0512606948614,1484.0512606948614,1484.0512606948614,1484.0512606948614,fogó,4,4.199943974614143,1488.2927748858929,1488.2927748858929,1488.2927748858929,limonádé,down,3.3023039530962706,1491.6144914049655,1491.6144914049655,4,1.6320708729326725,,,,,,,,,,,,,,,,,,,414789,2022-08-30_14h47.38.606,palt,2022.2.2,59.22753283170554,
10,málna,dominó,,,,,,,,,3,0,3,0,,,,,0,3,3,9,,,,,,1493.2743166564032,,,,,,,1494.3014510311186,1494.3014510311186,1494.3014510311186,1494.3014510311186,málna,4,2.8101982278749347,1497.1339233946055,1497.1339233946055,1497.1339233946055, dominó,down,2.428692596964538,1499.5957831265405,1499.5957831265405,4,1.3670701012015343,,,,,,,,,,,,,,,,,,,414789,2022-08-30_14h47.38.606,palt,2022.2.2,59.22753283170554,
8,szalvéta,puska,,,,,,,,,3,0,3,0,,,,,0,4,4,7,,,,,,1500.9946699719876,,,,,,,1502.019611440599,1502.019611440599,1502.019611440599,1502.019611440599,puska,None,,1516.9997599022463,1516.9997599022463,1516.9997599022463, szalvéta,down,4.7389202285557985,1521.7766874581575,1521.7766874581575,4,3.089709003455937,,,,,,,,,,,,,,,,,,,414789,2022-08-30_14h47.38.606,palt,2022.2.2,59.22753283170554,
4,mocsár,ananász,,,,,,,,,3,0,3,0,,,,,0,5,5,3,,,,,,1524.8975731544197,,,,,,,1525.9134179968387,1525.9134179968387,1525.9134179968387,1525.9134179968387,ananász,4,5.08262210059911,1531.0221420992166,1531.0221420992166,1531.0221420992166, mocsár,down,3.436762279830873,1534.4949660496786,1534.4949660496786,4,2.1303864615038037,,,,,,,,,,,,,,,,,,1525.9134179968387,414789,2022-08-30_14h47.38.606,palt,2022.2.2,59.22753283170554,
5,karton,hentes,,,,,,,,,3,0,3,0,,,,,0,6,6,4,,,,,,1536.6548454165459,,,,,,,1537.6698713796213,1537.6698713796213,1537.6698713796213,1537.6698713796213,karton,None,,1552.6512175276875,1552.6512175276875,1552.6512175276875, harcsa,down,3.3269030041992664,1556.0204598661512,1556.0204598661512,4,4.861285382881761,,,,,,,,,,,,,,,,,,,414789,2022-08-30_14h47.38.606,palt,2022.2.2,59.22753283170554,
2,kötény,tisztás,,,,,,,,,3,0,3,0,,,,,0,7,7,1,,,,,,1560.9083787603304,,,,,,,1561.9410854363814,1561.9410854363814,1561.9410854363814,1561.9410854363814,kötény,None,,1576.9234740780666,1576.9234740780666,1576.9234740780666, ,down,1.1663534184917808,1578.1166908415034,1578.1166908415034,4,2.884678350761533,,,,,,,,,,,,,,,,,,,414789,2022-08-30_14h47.38.606,palt,2022.2.2,59.22753283170554,
7,csavarhúzó,hering,,,,,,,,,3,0,3,0,,,,,0,8,8,6,,,,,,1581.0246345046908,,,,,,,1582.0497028641403,1582.0497028641403,1582.0497028641403,1582.0497028641403,hering,4,3.8490062281489372,1585.9470660900697,1585.9470660900697,1585.9470660900697, csavarhúzó,down,3.839166296645999,1589.8286457406357,1589.8286457406357,4,1.7148293629288673,,,,,,,,,,,,,,,,,,,414789,2022-08-30_14h47.38.606,palt,2022.2.2,59.22753283170554,
6,menta,triatlon,,,,,,,,,3,0,3,0,,,,,0,9,9,5,,,,,,1591.5718853948638,,,,,,,1592.5938978055492,1592.5938978055492,1592.5938978055492,1592.5938978055492,triatlon,None,,1607.5820565484464,1607.5820565484464,1607.5820565484464, ,down,1.9954818412661552,1609.6457770923153,1609.6457770923153,4,7.525235823355615,,,,,,,,,,,,,,,,,,,414789,2022-08-30_14h47.38.606,palt,2022.2.2,59.22753283170554,
,,,,,,,,,,,,,,,,,,,,,,,,,,,,,,,,,,,,,,,,,,,,,,,,,,,,,,,,,,,,,,,,,1617.229851450771,1617.229851450771,,,,,,,,,
