itemno,wordA,wordB,enc_gyak.thisRepN,enc_gyak.thisTrialN,enc_gyak.thisN,enc_gyak.thisIndex,rec_gyak.thisRepN,rec_gyak.thisTrialN,rec_gyak.thisN,rec_gyak.thisIndex,repeat_task.thisRepN,repeat_task.thisTrialN,repeat_task.thisN,repeat_task.thisIndex,enc_loop.thisRepN,enc_loop.thisTrialN,enc_loop.thisN,enc_loop.thisIndex,test_loop.thisRepN,test_loop.thisTrialN,test_loop.thisN,test_loop.thisIndex,int.started,int.stopped,int_key.keys,int_key.rt,int_key.started,int_key.stopped,prepare_gyak_text.started,prepare_gyak_text.stopped,fix.started,fix.stopped,word1.started,word1.stopped,word2.started,word2.stopped,gykrec_inst.started,gykrec_inst.stopped,gyakrec_inst.keys,gyakrec_inst.rt,gyakrec_inst.started,gyakrec_inst.stopped,cueword,cueword1.started,cueword1.stopped,cue_resp.keys,cue_resp.rt,cue_resp.started,cue_resp.stopped,cue_cont_text.started,cue_cont_text.stopped,cue_space.started,cue_space.stopped,test_ansbox.text,test_ansbox.started,test_ansbox.stopped,ans_text.started,ans_text.stopped,ans_continue.keys,ans_continue.rt,ans_continue.started,ans_continue.stopped,feedback_text.started,feedback_text.stopped,feedback_cont.keys,feedback_cont.rt,feedback_cont.started,feedback_cont.stopped,main_prep.started,main_prep.stopped,main_prep_resp.keys,main_prep_resp.rt,main_prep_resp.started,main_prep_resp.stopped,preparation.started,preparation.stopped,break_text.started,break_text.stopped,key_resp.keys,key_resp.rt,key_resp.started,key_resp.stopped,test_instruction.started,test_instruction.stopped,test_i_key.keys,test_i_key.rt,test_i_key.started,test_i_key.stopped,rep_routine.keys,rep_routine.rt,rep_routine.started,rep_routine.stopped,encrep_textbox.started,encrep_textbox.stopped,end_text.started,end_text.stopped,Résztvevő kódja,date,expName,psychopyVersion,frameRate,
,,,,,,,,,,,,,,,,,,,,,,,15.626291066408157,None,4,56.29378770571202,15.626291066408157,None,,,,,,,,,,,,,,,,,,,,,,,,,,,,,,,,,,,,,,,,,,,,,,,,,,,,,,,,,,,,,,,,,,,,,421865,2022_Jun_15_1245,palt,2021.1.2,52.607169772218725,
1,sapka,beton,0,0,0,0,,,,,,,,,,,,,,,,,,,,,,,71.94671555282548,None,75.00726262573153,None,75.97722778702155,None,75.97722778702155,None,,,,,,,,,,,,,,,,,,,,,,,,,,,,,,,,,,,,,,,,,,,,,,,,,,,,,,,,,,,,,421865,2022_Jun_15_1245,palt,2021.1.2,52.607169772218725,
3,majoránna,szikla,0,1,1,2,,,,,,,,,,,,,,,,,,,,,,,,,81.95821253350005,None,82.99389618495479,None,82.99389618495479,None,,,,,,,,,,,,,,,,,,,,,,,,,,,,,,,,,,,,,,,,,,,,,,,,,,,,,,,,,,,,,421865,2022_Jun_15_1245,palt,2021.1.2,52.607169772218725,
2,lepke,szintetizátor,0,2,2,1,,,,,,,,,,,,,,,,,,,,,,,,,88.9509691898711,None,89.98264863155782,None,89.98264863155782,None,,,,,,,,,,,,,,,,,,,,,,,,,,,,,,,,,,,,,,,,,,,,,,,,,,,,,,,,,,,,,421865,2022_Jun_15_1245,palt,2021.1.2,52.607169772218725,
4,kard,harcsa,0,3,3,3,,,,,,,,,,,,,,,,,,,,,,,,,95.96055410197005,None,96.98206829326227,None,96.98206829326227,None,,,,,,,,,,,,,,,,,,,,,,,,,,,,,,,,,,,,,,,,,,,,,,,,,,,,,,,,,,,,,421865,2022_Jun_15_1245,palt,2021.1.2,52.607169772218725,
,,,,,,,,,,,,,,,,,,,,,,,,,,,,,,,,,,,,,102.96040170872584,None,4,6.520529233850539,102.96040170872584,None,,,,,,,,,,,,,,,,,,,,,,,,,,,,,,,,,,,,,,,,,,,,,,,,,,,,,,,421865,2022_Jun_15_1245,palt,2021.1.2,52.607169772218725,
4,kard,harcsa,,,,,0,0,0,3,,,,,,,,,,,,,,,,,,,,,109.52180436067283,None,,,,,,,,,,,kard,110.5243337773718,None,4,11.151118099689484,110.5243337773718,None,110.5243337773718,None,110.5243337773718,None, harcsa,121.72844895441085,None,121.72844895441085,None,down,7.106942102313042,121.72844895441085,None,128.89636265393347,None,4,6.607259017881006,128.89636265393347,None,,,,,,,,,,,,,,,,,,,,,,,,,,,,,421865,2022_Jun_15_1245,palt,2021.1.2,52.607169772218725,
2,lepke,szintetizátor,,,,,0,1,1,1,,,,,,,,,,,,,,,,,,,,,135.5287354537286,None,,,,,,,,,,,lepke,136.55029380787164,None,4,3.220002948306501,136.55029380787164,None,136.55029380787164,None,136.55029380787164,None,szintetizátor,139.79520962806419,None,139.79520962806419,None,down,3.6961571406573057,139.79520962806419,None,143.51752335531637,None,4,4.469648867379874,143.51752335531637,None,,,,,,,,,,,,,,,,,,,,,,,,,,,,,421865,2022_Jun_15_1245,palt,2021.1.2,52.607169772218725,
3,majoránna,szikla,,,,,0,2,2,2,,,,,,,,,,,,,,,,,,,,,148.00686329370365,None,,,,,,,,,,,majoránna,149.0144739355892,None,4,4.070684643927962,149.0144739355892,None,149.0144739355892,None,149.0144739355892,None,szikla,153.1162091656588,None,153.1162091656588,None,down,2.486952029634267,153.1162091656588,None,155.63093937048689,None,4,3.097068576142192,155.63093937048689,None,,,,,,,,,,,,,,,,,,,,,,,,,,,,,421865,2022_Jun_15_1245,palt,2021.1.2,52.607169772218725,
1,sapka,beton,,,,,0,3,3,0,,,,,,,,,,,,,,,,,,,,,158.76847021467984,None,,,,,,,,,,,beton,159.7856698120013,None,4,12.84928092174232,159.7856698120013,None,159.7856698120013,None,159.7856698120013,None,sapka,172.66834786487743,None,172.66834786487743,None,down,1.9745920062996447,172.66834786487743,None,174.66852824855596,None,4,4.562433016952127,174.66852824855596,None,,,,,,,,,,,,,,,,,,,,,,,,,,,,,421865,2022_Jun_15_1245,palt,2021.1.2,52.607169772218725,
,,,,,,,,,,,,,,,,,,,,,,,,,,,,,,,,,,,,,,,,,,,,,,,,,,,,,,,,,,,,,,,,,,,,,179.2632443709299,None,4,50.3550161938183,179.2632443709299,None,,,,,,,,,,,,,,,,,,,,,,,421865,2022_Jun_15_1245,palt,2021.1.2,52.607169772218725,
8,szalvéta,puska,,,,,,,,,0,0,0,0,0,0,0,7,,,,,,,,,,,,,233.68590760743245,None,234.6701056738384,None,234.6701056738384,None,,,,,,,,,,,,,,,,,,,,,,,,,,,,,,,,,,,,,,,229.64077091077343,None,,,,,,,,,,,,,,,,,,,,,421865,2022_Jun_15_1245,palt,2021.1.2,52.607169772218725,
7,csavarhúzó,hering,,,,,,,,,0,0,0,0,0,1,1,6,,,,,,,,,,,,,240.6530699771829,None,241.67098768847063,None,241.67098768847063,None,,,,,,,,,,,,,,,,,,,,,,,,,,,,,,,,,,,,,,,,,,,,,,,,,,,,,,,,,,,,,421865,2022_Jun_15_1245,palt,2021.1.2,52.607169772218725,
6,menta,triatlon,,,,,,,,,0,0,0,0,0,2,2,5,,,,,,,,,,,,,247.65332406945527,None,248.66581564908847,None,248.66581564908847,None,,,,,,,,,,,,,,,,,,,,,,,,,,,,,,,,,,,,,,,,,,,,,,,,,,,,,,,,,,,,,421865,2022_Jun_15_1245,palt,2021.1.2,52.607169772218725,
3,fogó,limonádé,,,,,,,,,0,0,0,0,0,3,3,2,,,,,,,,,,,,,254.6529203830287,None,255.66440865537152,None,255.66440865537152,None,,,,,,,,,,,,,,,,,,,,,,,,,,,,,,,,,,,,,,,,,,,,,,,,,,,,,,,,,,,,,421865,2022_Jun_15_1245,palt,2021.1.2,52.607169772218725,
2,kötény,tisztás,,,,,,,,,0,0,0,0,0,4,4,1,,,,,,,,,,,,,261.65131994336843,None,262.66955177113414,None,262.66955177113414,None,,,,,,,,,,,,,,,,,,,,,,,,,,,,,,,,,,,,,,,,,,,,,,,,,,,,,,,,,,,,,421865,2022_Jun_15_1245,palt,2021.1.2,52.607169772218725,
5,karton,hentes,,,,,,,,,0,0,0,0,0,5,5,4,,,,,,,,,,,,,268.656761625316,None,269.66982856718823,None,269.66982856718823,None,,,,,,,,,,,,,,,,,,,,,,,,,,,,,,,,,,,,,,,,,,,,,,,,,,,,,,,,,,,,,421865,2022_Jun_15_1245,palt,2021.1.2,52.607169772218725,
9,szilva,kecske,,,,,,,,,0,0,0,0,0,6,6,8,,,,,,,,,,,,,275.65205080853775,None,276.6550352280028,None,276.6550352280028,None,,,,,,,,,,,,,,,,,,,,,,,,,,,,,,,,,,,,,,,,,,,,,,,,,,,,,,,,,,,,,421865,2022_Jun_15_1245,palt,2021.1.2,52.607169772218725,
10,málna,dominó,,,,,,,,,0,0,0,0,0,7,7,9,,,,,,,,,,,,,282.66501542925835,None,283.6643141093664,None,283.6643141093664,None,,,,,,,,,,,,,,,,,,,,,,,,,,,,,,,,,,,,,,,,,,,,,,,,,,,,,,,,,,,,,421865,2022_Jun_15_1245,palt,2021.1.2,52.607169772218725,
1,bagoly,kirakó,,,,,,,,,0,0,0,0,0,8,8,0,,,,,,,,,,,,,289.65260377852246,None,290.6702154595405,None,290.6702154595405,None,,,,,,,,,,,,,,,,,,,,,,,,,,,,,,,,,,,,,,,,,,,,,,,,,,,,,,,,,,,,,421865,2022_Jun_15_1245,palt,2021.1.2,52.607169772218725,
4,mocsár,ananász,,,,,,,,,0,0,0,0,0,9,9,3,,,,,,,,,,,,,296.65891659026965,None,297.6695026322268,None,297.6695026322268,None,,,,,,,,,,,,,,,,,,,,,,,,,,,,,,,,,,,,,,,,,,,,,,,,,,,,,,,,,,,,,421865,2022_Jun_15_1245,palt,2021.1.2,52.607169772218725,
2,kötény,tisztás,,,,,,,,,0,0,0,0,,,,,0,0,0,1,,,,,,,,,318.1853854274377,None,,,,,,,,,,,kötény,319.1821242123842,None,4,14.324865971691906,319.1821242123842,None,319.1821242123842,None,319.1821242123842,None,,333.5513593167998,None,333.5513593167998,None,down,1.7457549152895808,333.5513593167998,None,335.3400297197513,None,4,2.289257273077965,335.3400297197513,None,,,,,,,314.1583110601641,None,303.65154200186953,None,u,2.733880684245378,303.65154200186953,None,306.4233471401967,None,4,7.709921358618885,306.4233471401967,None,,,,,,,,,421865,2022_Jun_15_1245,palt,2021.1.2,52.607169772218725,
3,fogó,limonádé,,,,,,,,,0,0,0,0,,,,,0,1,1,2,,,,,,,,,337.66147741815075,None,,,,,,,,,,,fogó,338.6829959638417,None,None,,338.6829959638417,None,338.6829959638417,None,338.6829959638417,None, ,353.67325834790245,None,353.67325834790245,None,down,2.2157113682478666,353.67325834790245,None,355.92616765899584,None,4,3.496562755201012,355.92616765899584,None,,,,,,,,,,,,,,,,,,,,,,,,,,,,,421865,2022_Jun_15_1245,palt,2021.1.2,52.607169772218725,
5,karton,hentes,,,,,,,,,0,0,0,0,,,,,0,2,2,4,,,,,,,,,359.4628667468205,None,,,,,,,,,,,hentes,360.48382579162717,None,4,5.733916760887951,360.48382579162717,None,360.48382579162717,None,360.48382579162717,None,karton,366.2482277289964,None,366.2482277289964,None,down,2.136435478925705,366.2482277289964,None,368.4219273952767,None,4,2.0387647938914597,368.4219273952767,None,,,,,,,,,,,,,,,,,,,,,,,,,,,,,421865,2022_Jun_15_1245,palt,2021.1.2,52.607169772218725,
9,szilva,kecske,,,,,,,,,0,0,0,0,,,,,0,3,3,8,,,,,,,,,370.49117270018905,None,,,,,,,,,,,szilva,371.5133020626381,None,None,,371.5133020626381,None,371.5133020626381,None,371.5133020626381,None, ,386.5025667375885,None,386.5025667375885,None,down,1.7218413082882762,386.5025667375885,None,388.2574360119179,None,4,3.0870781117118895,388.2574360119179,None,,,,,,,,,,,,,,,,,,,,,,,,,,,,,421865,2022_Jun_15_1245,palt,2021.1.2,52.607169772218725,
4,mocsár,ananász,,,,,,,,,0,0,0,0,,,,,0,4,4,3,,,,,,,,,391.36951998621225,None,,,,,,,,,,,mocsár,392.38542113127187,None,4,11.70799218537286,392.38542113127187,None,392.38542113127187,None,392.38542113127187,None, ,404.13294411916286,None,404.13294411916286,None,down,0.9713544272817671,404.13294411916286,None,405.14440688863397,None,4,1.8470258130691946,405.14440688863397,None,,,,,,,,,,,,,,,,,,,,,,,,,,,,,421865,2022_Jun_15_1245,palt,2021.1.2,52.607169772218725,
10,málna,dominó,,,,,,,,,0,0,0,0,,,,,0,5,5,9,,,,,,,,,407.023398891557,None,,,,,,,,,,,málna,408.04674833314493,None,4,10.72346631763503,408.04674833314493,None,408.04674833314493,None,408.04674833314493,None, ,418.81437198771164,None,418.81437198771164,None,down,2.0017540771514177,418.81437198771164,None,420.84334225114435,None,4,1.3786467853933573,420.84334225114435,None,,,,,,,,,,,,,,,,,,,,,,,,,,,,,421865,2022_Jun_15_1245,palt,2021.1.2,52.607169772218725,
8,szalvéta,puska,,,,,,,,,0,0,0,0,,,,,0,6,6,7,,,,,,,,,422.26332585467026,None,,,,,,,,,,,puska,423.2885988717899,None,4,11.656744208652526,423.2885988717899,None,423.2885988717899,None,423.2885988717899,None,,434.98074962571263,None,434.98074962571263,None,down,1.7555046612396836,434.98074962571263,None,436.758807240054,None,4,2.093108840752393,436.758807240054,None,,,,,,,,,,,,,,,,,,,,,,,,,,,,,421865,2022_Jun_15_1245,palt,2021.1.2,52.607169772218725,
7,csavarhúzó,hering,,,,,,,,,0,0,0,0,,,,,0,7,7,6,,,,,,,,,438.88240281213075,None,,,,,,,,,,,csavarhúzó,439.8980308929458,None,4,12.267807770520449,439.8980308929458,None,439.8980308929458,None,439.8980308929458,None,,452.20050998870283,None,452.20050998870283,None,down,1.4792151185683906,452.20050998870283,None,453.7073577316478,None,4,2.930249309167266,453.7073577316478,None,,,,,,,,,,,,,,,,,,,,,,,,,,,,,421865,2022_Jun_15_1245,palt,2021.1.2,52.607169772218725,
1,bagoly,kirakó,,,,,,,,,0,0,0,0,,,,,0,8,8,0,,,,,,,,,456.66916145803407,None,,,,,,,,,,,kirakó,457.68665122427046,None,4,8.975969143211842,457.68665122427046,None,457.68665122427046,None,457.68665122427046,None, ,466.6895277244039,None,466.6895277244039,None,down,1.758078862912953,466.6895277244039,None,468.47481126571074,None,4,1.459845317993313,468.47481126571074,None,,,,,,,,,,,,,,,,,,,,,,,,,,,,,421865,2022_Jun_15_1245,palt,2021.1.2,52.607169772218725,
6,menta,triatlon,,,,,,,,,0,0,0,0,,,,,0,9,9,5,,,,,,,,,469.9689158247784,None,,,,,,,,,,,menta,470.98857610626146,None,None,,470.98857610626146,None,470.98857610626146,None,470.98857610626146,None, ,485.98498957837,None,485.98498957837,None,down,1.8863557055592537,485.98498957837,None,487.9165619094856,None,4,1.3029054859653115,487.9165619094856,None,,,,,,,,,,,,,,,,,,,,,,,,,,,,,421865,2022_Jun_15_1245,palt,2021.1.2,52.607169772218725,
,,,,,,,,,,,0,0,0,0,,,,,,,,,,,,,,,,,,,,,,,,,,,,,,,,,,,,,,,,,,,,,,,,,,,,,,,,,,,,,,,,,,,,,,,,,,,4,15.128232369199395,489.2840000176802,None,489.2840000176802,None,,,421865,2022_Jun_15_1245,palt,2021.1.2,52.607169772218725,
6,menta,triatlon,,,,,,,,,1,0,1,0,0,0,0,5,,,,,,,,,,,,,508.46684794221073,None,509.467244786676,None,509.467244786676,None,,,,,,,,,,,,,,,,,,,,,,,,,,,,,,,,,,,,,,,504.4469954590313,None,,,,,,,,,,,,,,,,,,,,,421865,2022_Jun_15_1245,palt,2021.1.2,52.607169772218725,
1,bagoly,kirakó,,,,,,,,,1,0,1,0,0,1,1,0,,,,,,,,,,,,,515.4501546635292,None,516.4619847321883,None,516.4619847321883,None,,,,,,,,,,,,,,,,,,,,,,,,,,,,,,,,,,,,,,,,,,,,,,,,,,,,,,,,,,,,,421865,2022_Jun_15_1245,palt,2021.1.2,52.607169772218725,
7,csavarhúzó,hering,,,,,,,,,1,0,1,0,0,2,2,6,,,,,,,,,,,,,522.4487333637662,None,523.4640174712986,None,523.4640174712986,None,,,,,,,,,,,,,,,,,,,,,,,,,,,,,,,,,,,,,,,,,,,,,,,,,,,,,,,,,,,,,421865,2022_Jun_15_1245,palt,2021.1.2,52.607169772218725,
2,kötény,tisztás,,,,,,,,,1,0,1,0,0,3,3,1,,,,,,,,,,,,,529.4498890643008,None,530.4691783143207,None,530.4691783143207,None,,,,,,,,,,,,,,,,,,,,,,,,,,,,,,,,,,,,,,,,,,,,,,,,,,,,,,,,,,,,,421865,2022_Jun_15_1245,palt,2021.1.2,52.607169772218725,
4,mocsár,ananász,,,,,,,,,1,0,1,0,0,4,4,3,,,,,,,,,,,,,536.4613509005867,None,537.4624378690496,None,537.4624378690496,None,,,,,,,,,,,,,,,,,,,,,,,,,,,,,,,,,,,,,,,,,,,,,,,,,,,,,,,,,,,,,421865,2022_Jun_15_1245,palt,2021.1.2,52.607169772218725,
3,fogó,limonádé,,,,,,,,,1,0,1,0,0,5,5,2,,,,,,,,,,,,,543.446334569715,None,544.4613658292219,None,544.4613658292219,None,,,,,,,,,,,,,,,,,,,,,,,,,,,,,,,,,,,,,,,,,,,,,,,,,,,,,,,,,,,,,421865,2022_Jun_15_1245,palt,2021.1.2,52.607169772218725,
8,szalvéta,puska,,,,,,,,,1,0,1,0,0,6,6,7,,,,,,,,,,,,,550.4482705858536,None,551.4656704710796,None,551.4656704710796,None,,,,,,,,,,,,,,,,,,,,,,,,,,,,,,,,,,,,,,,,,,,,,,,,,,,,,,,,,,,,,421865,2022_Jun_15_1245,palt,2021.1.2,52.607169772218725,
5,karton,hentes,,,,,,,,,1,0,1,0,0,7,7,4,,,,,,,,,,,,,557.4504886846989,None,558.4680761070922,None,558.4680761070922,None,,,,,,,,,,,,,,,,,,,,,,,,,,,,,,,,,,,,,,,,,,,,,,,,,,,,,,,,,,,,,421865,2022_Jun_15_1245,palt,2021.1.2,52.607169772218725,
10,málna,dominó,,,,,,,,,1,0,1,0,0,8,8,9,,,,,,,,,,,,,564.4479350098409,None,565.460544149857,None,565.460544149857,None,,,,,,,,,,,,,,,,,,,,,,,,,,,,,,,,,,,,,,,,,,,,,,,,,,,,,,,,,,,,,421865,2022_Jun_15_1245,palt,2021.1.2,52.607169772218725,
9,szilva,kecske,,,,,,,,,1,0,1,0,0,9,9,8,,,,,,,,,,,,,571.4483315432444,None,572.4558376870118,None,572.4558376870118,None,,,,,,,,,,,,,,,,,,,,,,,,,,,,,,,,,,,,,,,,,,,,,,,,,,,,,,,,,,,,,421865,2022_Jun_15_1245,palt,2021.1.2,52.607169772218725,
4,mocsár,ananász,,,,,,,,,1,0,1,0,,,,,0,0,0,3,,,,,,,,,587.9367938209325,None,,,,,,,,,,,mocsár,588.9289402826689,None,4,7.171560873277485,588.9289402826689,None,588.9289402826689,None,588.9289402826689,None,,596.149345362559,None,596.149345362559,None,down,1.8168177432380617,596.149345362559,None,597.9934937423095,None,4,1.7055352330207825,597.9934937423095,None,,,,,,,583.9057273729704,None,578.4500315049663,None,u,4.060312263201922,578.4500315049663,None,582.532133822795,None,4,1.3352128500118852,582.532133822795,None,,,,,,,,,421865,2022_Jun_15_1245,palt,2021.1.2,52.607169772218725,
8,szalvéta,puska,,,,,,,,,1,0,1,0,,,,,0,1,1,7,,,,,,,,,599.7394688506611,None,,,,,,,,,,,puska,600.7624457064085,None,4,9.007430569268763,600.7624457064085,None,600.7624457064085,None,600.7624457064085,None, szilva,609.8153124717064,None,609.8153124717064,None,down,1.831062467303127,609.8153124717064,None,611.6792365163565,None,4,3.5687153502367437,611.6792365163565,None,,,,,,,,,,,,,,,,,,,,,,,,,,,,,421865,2022_Jun_15_1245,palt,2021.1.2,52.607169772218725,
2,kötény,tisztás,,,,,,,,,1,0,1,0,,,,,0,2,2,1,,,,,,,,,615.2813458875753,None,,,,,,,,,,,kötény,616.299170607701,None,None,,616.299170607701,None,616.299170607701,None,616.299170607701,None, 4,631.2976640919223,None,631.2976640919223,None,down,2.0120375100523233,631.2976640919223,None,633.3374023362994,None,4,1.1482294704765081,633.3374023362994,None,,,,,,,,,,,,,,,,,,,,,,,,,,,,,421865,2022_Jun_15_1245,palt,2021.1.2,52.607169772218725,
6,menta,triatlon,,,,,,,,,1,0,1,0,,,,,0,3,3,5,,,,,,,,,634.5246830377728,None,,,,,,,,,,,menta,635.5436407551169,None,4,10.884905482176691,635.5436407551169,None,635.5436407551169,None,635.5436407551169,None,triatlon,646.4756033997983,None,646.4756033997983,None,down,1.9699489888735116,646.4756033997983,None,648.4821376479231,None,4,4.830354304984212,648.4821376479231,None,,,,,,,,,,,,,,,,,,,,,,,,,,,,,421865,2022_Jun_15_1245,palt,2021.1.2,52.607169772218725,
9,szilva,kecske,,,,,,,,,1,0,1,0,,,,,0,4,4,8,,,,,,,,,653.3379817414097,None,,,,,,,,,,,szilva,654.3608503667638,None,4,11.184792959596962,654.3608503667638,None,654.3608503667638,None,654.3608503667638,None,kötény,665.5860552112572,None,665.5860552112572,None,down,3.403155659325421,665.5860552112572,None,669.0373158142902,None,4,5.876927852164954,669.0373158142902,None,,,,,,,,,,,,,,,,,,,,,,,,,,,,,421865,2022_Jun_15_1245,palt,2021.1.2,52.607169772218725,
3,fogó,limonádé,,,,,,,,,1,0,1,0,,,,,0,5,5,2,,,,,,,,,674.9358744854107,None,,,,,,,,,,,fogó,675.9649800364859,None,4,8.281143111176789,675.9649800364859,None,675.9649800364859,None,675.9649800364859,None, ,684.2876599431038,None,684.2876599431038,None,down,1.5653913118876517,684.2876599431038,None,685.8953553033061,None,4,3.381654219236225,685.8953553033061,None,,,,,,,,,,,,,,,,,,,,,,,,,,,,,421865,2022_Jun_15_1245,palt,2021.1.2,52.607169772218725,
5,karton,hentes,,,,,,,,,1,0,1,0,,,,,0,6,6,4,,,,,,,,,689.3017333019525,None,,,,,,,,,,,hentes,690.3317065616138,None,4,4.363365165889263,690.3317065616138,None,690.3317065616138,None,690.3317065616138,None,karton,694.7258234368637,None,694.7258234368637,None,down,1.911195179913193,694.7258234368637,None,696.6835433356464,None,4,1.8534508980810642,696.6835433356464,None,,,,,,,,,,,,,,,,,,,,,,,,,,,,,421865,2022_Jun_15_1245,palt,2021.1.2,52.607169772218725,
7,csavarhúzó,hering,,,,,,,,,1,0,1,0,,,,,0,7,7,6,,,,,,,,,698.5723836729303,None,,,,,,,,,,,csavarhúzó,699.5950964838266,None,4,12.651776811573654,699.5950964838266,None,699.5950964838266,None,699.5950964838266,None,hattyú,712.2914411611855,None,712.2914411611855,None,down,1.9613963076844811,712.2914411611855,None,714.2898898604326,None,4,2.5118076759390533,714.2898898604326,None,,,,,,,,,,,,,,,,,,,,,,,,,,,,,421865,2022_Jun_15_1245,palt,2021.1.2,52.607169772218725,
1,bagoly,kirakó,,,,,,,,,1,0,1,0,,,,,0,8,8,0,,,,,,,,,716.8452851092443,None,,,,,,,,,,,kirakó,717.8592440178618,None,4,4.95447485614568,717.8592440178618,None,717.8592440178618,None,717.8592440178618,None,bagoly,722.8464237041771,None,722.8464237041771,None,down,1.7266494701616466,722.8464237041771,None,724.6266599199735,None,4,2.962236958555877,724.6266599199735,None,,,,,,,,,,,,,,,,,,,,,,,,,,,,,421865,2022_Jun_15_1245,palt,2021.1.2,52.607169772218725,
10,málna,dominó,,,,,,,,,1,0,1,0,,,,,0,9,9,9,,,,,,,,,727.6115176314488,None,,,,,,,,,,,málna,728.6248797182925,None,None,,728.6248797182925,None,728.6248797182925,None,728.6248797182925,None, diaszpóra,743.613324268721,None,743.613324268721,None,down,7.615097317378968,743.613324268721,None,751.2756774812005,None,4,6.5429633827880025,751.2756774812005,None,,,,,,,,,,,,,,,,,,,,,,,,,,,,,421865,2022_Jun_15_1245,palt,2021.1.2,52.607169772218725,
,,,,,,,,,,,1,0,1,0,,,,,,,,,,,,,,,,,,,,,,,,,,,,,,,,,,,,,,,,,,,,,,,,,,,,,,,,,,,,,,,,,,,,,,,,,,,4,6.707897327840328,757.8823287924752,None,757.8823287924752,None,,,421865,2022_Jun_15_1245,palt,2021.1.2,52.607169772218725,
3,fogó,limonádé,,,,,,,,,2,0,2,0,0,0,0,2,,,,,,,,,,,,,768.6318733235821,None,769.627101549413,None,769.627101549413,None,,,,,,,,,,,,,,,,,,,,,,,,,,,,,,,,,,,,,,,764.6134483604692,None,,,,,,,,,,,,,,,,,,,,,421865,2022_Jun_15_1245,palt,2021.1.2,52.607169772218725,
8,szalvéta,puska,,,,,,,,,2,0,2,0,0,1,1,7,,,,,,,,,,,,,775.6117720347829,None,776.6300321645103,None,776.6300321645103,None,,,,,,,,,,,,,,,,,,,,,,,,,,,,,,,,,,,,,,,,,,,,,,,,,,,,,,,,,,,,,421865,2022_Jun_15_1245,palt,2021.1.2,52.607169772218725,
7,csavarhúzó,hering,,,,,,,,,2,0,2,0,0,2,2,6,,,,,,,,,,,,,782.6137416395359,None,783.6313610957004,None,783.6313610957004,None,,,,,,,,,,,,,,,,,,,,,,,,,,,,,,,,,,,,,,,,,,,,,,,,,,,,,,,,,,,,,421865,2022_Jun_15_1245,palt,2021.1.2,52.607169772218725,
1,bagoly,kirakó,,,,,,,,,2,0,2,0,0,3,3,0,,,,,,,,,,,,,789.6150341830216,None,790.634495108854,None,790.634495108854,None,,,,,,,,,,,,,,,,,,,,,,,,,,,,,,,,,,,,,,,,,,,,,,,,,,,,,,,,,,,,,421865,2022_Jun_15_1245,palt,2021.1.2,52.607169772218725,
4,mocsár,ananász,,,,,,,,,2,0,2,0,0,4,4,3,,,,,,,,,,,,,796.6242290926166,None,797.6499188584276,None,797.6499188584276,None,,,,,,,,,,,,,,,,,,,,,,,,,,,,,,,,,,,,,,,,,,,,,,,,,,,,,,,,,,,,,421865,2022_Jun_15_1245,palt,2021.1.2,52.607169772218725,
5,karton,hentes,,,,,,,,,2,0,2,0,0,5,5,4,,,,,,,,,,,,,803.6123175402172,None,804.6304140803404,None,804.6304140803404,None,,,,,,,,,,,,,,,,,,,,,,,,,,,,,,,,,,,,,,,,,,,,,,,,,,,,,,,,,,,,,421865,2022_Jun_15_1245,palt,2021.1.2,52.607169772218725,
6,menta,triatlon,,,,,,,,,2,0,2,0,0,6,6,5,,,,,,,,,,,,,810.6119427774101,None,811.6306457803585,None,811.6306457803585,None,,,,,,,,,,,,,,,,,,,,,,,,,,,,,,,,,,,,,,,,,,,,,,,,,,,,,,,,,,,,,421865,2022_Jun_15_1245,palt,2021.1.2,52.607169772218725,
10,málna,dominó,,,,,,,,,2,0,2,0,0,7,7,9,,,,,,,,,,,,,817.6135662319139,None,818.62381420983,None,818.62381420983,None,,,,,,,,,,,,,,,,,,,,,,,,,,,,,,,,,,,,,,,,,,,,,,,,,,,,,,,,,,,,,421865,2022_Jun_15_1245,palt,2021.1.2,52.607169772218725,
9,szilva,kecske,,,,,,,,,2,0,2,0,0,8,8,8,,,,,,,,,,,,,824.6129361325875,None,825.6324903606437,None,825.6324903606437,None,,,,,,,,,,,,,,,,,,,,,,,,,,,,,,,,,,,,,,,,,,,,,,,,,,,,,,,,,,,,,421865,2022_Jun_15_1245,palt,2021.1.2,52.607169772218725,
2,kötény,tisztás,,,,,,,,,2,0,2,0,0,9,9,1,,,,,,,,,,,,,831.6145533667877,None,832.6263862340711,None,832.6263862340711,None,,,,,,,,,,,,,,,,,,,,,,,,,,,,,,,,,,,,,,,,,,,,,,,,,,,,,,,,,,,,,421865,2022_Jun_15_1245,palt,2021.1.2,52.607169772218725,
8,szalvéta,puska,,,,,,,,,2,0,2,0,,,,,0,0,0,7,,,,,,,,,846.9154743193649,None,,,,,,,,,,,puska,847.9081370518543,None,4,3.903445828706026,847.9081370518543,None,847.9081370518543,None,847.9081370518543,None,szilva,851.8511827271432,None,851.8511827271432,None,down,2.5760613256134093,851.8511827271432,None,854.4599149832502,None,4,3.375156980473548,854.4599149832502,None,,,,,,,842.8931061038747,None,838.6233165990561,None,u,3.02009693486616,838.6233165990561,None,841.6656044758856,None,4,1.199897305574268,841.6656044758856,None,,,,,,,,,421865,2022_Jun_15_1245,palt,2021.1.2,52.607169772218725,
1,bagoly,kirakó,,,,,,,,,2,0,2,0,,,,,0,1,1,0,,,,,,,,,857.872087656986,None,,,,,,,,,,,kirakó,858.8911109967157,None,4,3.357923795003444,858.8911109967157,None,858.8911109967157,None,858.8911109967157,None,bagoly,862.2932042572647,None,862.2932042572647,None,down,2.96592331957072,862.2932042572647,None,865.2975788759068,None,4,3.7047462090849876,865.2975788759068,None,,,,,,,,,,,,,,,,,,,,,,,,,,,,,421865,2022_Jun_15_1245,palt,2021.1.2,52.607169772218725,
10,málna,dominó,,,,,,,,,2,0,2,0,,,,,0,2,2,9,,,,,,,,,869.0385365150869,None,,,,,,,,,,,málna,870.0565182939172,None,None,,870.0565182939172,None,870.0565182939172,None,870.0565182939172,None, ,885.0456492356025,None,885.0456492356025,None,down,2.453576358035207,885.0456492356025,None,887.5425761798397,None,4,2.0011958205141127,887.5425761798397,None,,,,,,,,,,,,,,,,,,,,,,,,,,,,,421865,2022_Jun_15_1245,palt,2021.1.2,52.607169772218725,
2,kötény,tisztás,,,,,,,,,2,0,2,0,,,,,0,3,3,1,,,,,,,,,889.5836044792086,None,,,,,,,,,,,kötény,890.6124419430271,None,4,5.494650376029313,890.6124419430271,None,890.6124419430271,None,890.6124419430271,None, tisztás,896.1461749612354,None,896.1461749612354,None,down,2.1845702789723873,896.1461749612354,None,898.3682370842434,None,4,3.951784960459918,898.3682370842434,None,,,,,,,,,,,,,,,,,,,,,,,,,,,,,421865,2022_Jun_15_1245,palt,2021.1.2,52.607169772218725,
9,szilva,kecske,,,,,,,,,2,0,2,0,,,,,0,4,4,8,,,,,,,,,902.3551866258495,None,,,,,,,,,,,szilva,903.3793222918175,None,4,5.780532294418663,903.3793222918175,None,903.3793222918175,None,903.3793222918175,None,kötény,909.1933307126164,None,909.1933307126164,None,down,1.8732803668826818,909.1933307126164,None,911.1077821315266,None,4,5.22004462312907,911.1077821315266,None,,,,,,,,,,,,,,,,,,,,,,,,,,,,,421865,2022_Jun_15_1245,palt,2021.1.2,52.607169772218725,
3,fogó,limonádé,,,,,,,,,2,0,2,0,,,,,0,5,5,2,,,,,,,,,916.3645084262826,None,,,,,,,,,,,fogó,917.3938064905815,None,None,,917.3938064905815,None,917.3938064905815,None,917.3938064905815,None, ,932.3847359837964,None,932.3847359837964,None,down,1.4179717022925615,932.3847359837964,None,933.8403093148954,None,4,0.979021362029016,933.8403093148954,None,,,,,,,,,,,,,,,,,,,,,,,,,,,,,421865,2022_Jun_15_1245,palt,2021.1.2,52.607169772218725,
4,mocsár,ananász,,,,,,,,,2,0,2,0,,,,,0,6,6,3,,,,,,,,,934.8500599935651,None,,,,,,,,,,,mocsár,935.8761322973296,None,4,13.979199568741024,935.8761322973296,None,935.8761322973296,None,935.8761322973296,None,,949.8920757388696,None,949.8920757388696,None,down,1.4300627051852643,949.8920757388696,None,951.3597095948644,None,4,1.2064259555190802,951.3597095948644,None,,,,,,,,,,,,,,,,,,,,,,,,,,,,,421865,2022_Jun_15_1245,palt,2021.1.2,52.607169772218725,
7,csavarhúzó,hering,,,,,,,,,2,0,2,0,,,,,0,7,7,6,,,,,,,,,952.60511929309,None,,,,,,,,,,,csavarhúzó,953.6274218861945,None,4,12.252672012895346,953.6274218861945,None,953.6274218861945,None,953.6274218861945,None, ,965.9278778838925,None,965.9278778838925,None,down,1.266415393911302,965.9278778838925,None,967.2311721281148,None,4,1.364822853822261,967.2311721281148,None,,,,,,,,,,,,,,,,,,,,,,,,,,,,,421865,2022_Jun_15_1245,palt,2021.1.2,52.607169772218725,
6,menta,triatlon,,,,,,,,,2,0,2,0,,,,,0,8,8,5,,,,,,,,,968.6189202102832,None,,,,,,,,,,,menta,969.6397557854652,None,4,8.413402082398534,969.6397557854652,None,969.6397557854652,None,969.6397557854652,None,triatlon,978.0851131724194,None,978.0851131724194,None,down,1.9250816237181425,978.0851131724194,None,980.0582185667008,None,4,2.8296526740305126,980.0582185667008,None,,,,,,,,,,,,,,,,,,,,,,,,,,,,,421865,2022_Jun_15_1245,palt,2021.1.2,52.607169772218725,
5,karton,hentes,,,,,,,,,2,0,2,0,,,,,0,9,9,4,,,,,,,,,982.9151216377504,None,,,,,,,,,,,hentes,983.9402680755593,None,4,4.5944819347932935,983.9402680755593,None,983.9402680755593,None,983.9402680755593,None,karton,988.5766525492072,None,988.5766525492072,None,down,1.8489220198243856,988.5766525492072,None,990.468853934668,None,4,1.484910893253982,990.468853934668,None,,,,,,,,,,,,,,,,,,,,,,,,,,,,,421865,2022_Jun_15_1245,palt,2021.1.2,52.607169772218725,
,,,,,,,,,,,2,0,2,0,,,,,,,,,,,,,,,,,,,,,,,,,,,,,,,,,,,,,,,,,,,,,,,,,,,,,,,,,,,,,,,,,,,,,,,,,,,4,10.373303381260484,992.0063389362767,None,992.0063389362767,None,,,421865,2022_Jun_15_1245,palt,2021.1.2,52.607169772218725,
9,szilva,kecske,,,,,,,,,3,0,3,0,0,0,0,8,,,,,,,,,,,,,1006.4497117903084,None,1007.4405479812995,None,1007.4405479812995,None,,,,,,,,,,,,,,,,,,,,,,,,,,,,,,,,,,,,,,,1002.4204998747446,None,,,,,,,,,,,,,,,,,,,,,421865,2022_Jun_15_1245,palt,2021.1.2,52.607169772218725,
1,bagoly,kirakó,,,,,,,,,3,0,3,0,0,1,1,0,,,,,,,,,,,,,1013.4252788019367,None,1014.4430963695049,None,1014.4430963695049,None,,,,,,,,,,,,,,,,,,,,,,,,,,,,,,,,,,,,,,,,,,,,,,,,,,,,,,,,,,,,,421865,2022_Jun_15_1245,palt,2021.1.2,52.607169772218725,
5,karton,hentes,,,,,,,,,3,0,3,0,0,2,2,4,,,,,,,,,,,,,1020.4328263099305,None,1021.4381267949939,None,1021.4381267949939,None,,,,,,,,,,,,,,,,,,,,,,,,,,,,,,,,,,,,,,,,,,,,,,,,,,,,,,,,,,,,,421865,2022_Jun_15_1245,palt,2021.1.2,52.607169772218725,
7,csavarhúzó,hering,,,,,,,,,3,0,3,0,0,3,3,6,,,,,,,,,,,,,1027.4272285024635,None,1028.441021955572,None,1028.441021955572,None,,,,,,,,,,,,,,,,,,,,,,,,,,,,,,,,,,,,,,,,,,,,,,,,,,,,,,,,,,,,,421865,2022_Jun_15_1245,palt,2021.1.2,52.607169772218725,
2,kötény,tisztás,,,,,,,,,3,0,3,0,0,4,4,1,,,,,,,,,,,,,1034.4345054342411,None,1035.4323470485397,None,1035.4323470485397,None,,,,,,,,,,,,,,,,,,,,,,,,,,,,,,,,,,,,,,,,,,,,,,,,,,,,,,,,,,,,,421865,2022_Jun_15_1245,palt,2021.1.2,52.607169772218725,
6,menta,triatlon,,,,,,,,,3,0,3,0,0,5,5,5,,,,,,,,,,,,,1041.4248042060062,None,1042.4427617262118,None,1042.4427617262118,None,,,,,,,,,,,,,,,,,,,,,,,,,,,,,,,,,,,,,,,,,,,,,,,,,,,,,,,,,,,,,421865,2022_Jun_15_1245,palt,2021.1.2,52.607169772218725,
4,mocsár,ananász,,,,,,,,,3,0,3,0,0,6,6,3,,,,,,,,,,,,,1048.4267451982014,None,1049.449006427545,None,1049.449006427545,None,,,,,,,,,,,,,,,,,,,,,,,,,,,,,,,,,,,,,,,,,,,,,,,,,,,,,,,,,,,,,421865,2022_Jun_15_1245,palt,2021.1.2,52.607169772218725,
10,málna,dominó,,,,,,,,,3,0,3,0,0,7,7,9,,,,,,,,,,,,,1055.426341822371,None,1056.4317713757046,None,1056.4317713757046,None,,,,,,,,,,,,,,,,,,,,,,,,,,,,,,,,,,,,,,,,,,,,,,,,,,,,,,,,,,,,,421865,2022_Jun_15_1245,palt,2021.1.2,52.607169772218725,
3,fogó,limonádé,,,,,,,,,3,0,3,0,0,8,8,2,,,,,,,,,,,,,1062.4235623567365,None,1063.442526916042,None,1063.442526916042,None,,,,,,,,,,,,,,,,,,,,,,,,,,,,,,,,,,,,,,,,,,,,,,,,,,,,,,,,,,,,,421865,2022_Jun_15_1245,palt,2021.1.2,52.607169772218725,
8,szalvéta,puska,,,,,,,,,3,0,3,0,0,9,9,7,,,,,,,,,,,,,1069.426228305325,None,1070.4411970521323,None,1070.4411970521323,None,,,,,,,,,,,,,,,,,,,,,,,,,,,,,,,,,,,,,,,,,,,,,,,,,,,,,,,,,,,,,421865,2022_Jun_15_1245,palt,2021.1.2,52.607169772218725,
3,fogó,limonádé,,,,,,,,,3,0,3,0,,,,,0,0,0,2,,,,,,,,,1085.815389290452,None,,,,,,,,,,,fogó,1086.8028401746415,None,4,3.968750369269401,1086.8028401746415,None,1086.8028401746415,None,1086.8028401746415,None,limonádé,1090.8006985830143,None,1090.8006985830143,None,down,4.071672400459647,1090.8006985830143,None,1094.911968964152,None,4,1.8055394007824361,1094.911968964152,None,,,,,,,1081.7893670583144,None,1076.428104607854,None,u,3.8845583987422287,1076.428104607854,None,1080.3421654021367,None,4,1.406441133003682,1080.3421654021367,None,,,,,,,,,421865,2022_Jun_15_1245,palt,2021.1.2,52.607169772218725,
7,csavarhúzó,hering,,,,,,,,,3,0,3,0,,,,,0,1,1,6,,,,,,,,,1096.7534075439908,None,,,,,,,,,,,csavarhúzó,1097.7728336369619,None,4,5.360534073319286,1097.7728336369619,None,1097.7728336369619,None,1097.7728336369619,None,hering,1103.1811333457008,None,1103.1811333457008,None,down,1.4991528177633882,1103.1811333457008,None,1104.7187685635872,None,4,2.2888116003014147,1104.7187685635872,None,,,,,,,,,,,,,,,,,,,,,,,,,,,,,421865,2022_Jun_15_1245,palt,2021.1.2,52.607169772218725,
1,bagoly,kirakó,,,,,,,,,3,0,3,0,,,,,0,2,2,0,,,,,,,,,1107.028841195628,None,,,,,,,,,,,kirakó,1108.0560891046189,None,4,2.8012160980142653,1108.0560891046189,None,1108.0560891046189,None,1108.0560891046189,None,bagoly,1110.8880646871403,None,1110.8880646871403,None,down,1.6163456970825791,1110.8880646871403,None,1112.533819789067,None,4,1.888489832635969,1112.533819789067,None,,,,,,,,,,,,,,,,,,,,,,,,,,,,,421865,2022_Jun_15_1245,palt,2021.1.2,52.607169772218725,
6,menta,triatlon,,,,,,,,,3,0,3,0,,,,,0,3,3,5,,,,,,,,,1114.451949171722,None,,,,,,,,,,,menta,1115.4742094678804,None,4,2.9420448560267687,1115.4742094678804,None,1115.4742094678804,None,1115.4742094678804,None,triatlon,1118.4488782929257,None,1118.4488782929257,None,down,2.055340200662613,1118.4488782929257,None,1120.528613538947,None,4,2.9765525916591287,1120.528613538947,None,,,,,,,,,,,,,,,,,,,,,,,,,,,,,421865,2022_Jun_15_1245,palt,2021.1.2,52.607169772218725,
9,szilva,kecske,,,,,,,,,3,0,3,0,,,,,0,4,4,8,,,,,,,,,1123.536787413992,None,,,,,,,,,,,szilva,1124.5554235507734,None,4,7.764968280680478,1124.5554235507734,None,1124.5554235507734,None,1124.5554235507734,None,kötény,1132.35650062887,None,1132.35650062887,None,down,1.923581327777356,1132.35650062887,None,1134.3207006608136,None,4,3.826177486218512,1134.3207006608136,None,,,,,,,,,,,,,,,,,,,,,,,,,,,,,421865,2022_Jun_15_1245,palt,2021.1.2,52.607169772218725,
8,szalvéta,puska,,,,,,,,,3,0,3,0,,,,,0,5,5,7,,,,,,,,,1138.1809517177753,None,,,,,,,,,,,puska,1139.1894860491157,None,4,2.6474718586541712,1139.1894860491157,None,1139.1894860491157,None,1139.1894860491157,None,szilva,1141.882382596843,None,1141.882382596843,None,down,2.3335881517268717,1141.882382596843,None,1144.2405754122883,None,4,7.878483817912638,1144.2405754122883,None,,,,,,,,,,,,,,,,,,,,,,,,,,,,,421865,2022_Jun_15_1245,palt,2021.1.2,52.607169772218725,
2,kötény,tisztás,,,,,,,,,3,0,3,0,,,,,0,6,6,1,,,,,,,,,1152.1507560880855,None,,,,,,,,,,,kötény,1153.173899954185,None,4,11.25122614344582,1153.173899954185,None,1153.173899954185,None,1153.173899954185,None, ,1164.4616348496638,None,1164.4616348496638,None,down,1.6100686518475413,1164.4616348496638,None,1166.0959505080245,None,4,1.2616747207939625,1166.0959505080245,None,,,,,,,,,,,,,,,,,,,,,,,,,,,,,421865,2022_Jun_15_1245,palt,2021.1.2,52.607169772218725,
4,mocsár,ananász,,,,,,,,,3,0,3,0,,,,,0,7,7,3,,,,,,,,,1167.3797290883958,None,,,,,,,,,,,mocsár,1168.3936195755377,None,4,2.6903419392183423,1168.3936195755377,None,1168.3936195755377,None,1168.3936195755377,None,ananász,1171.1284926817752,None,1171.1284926817752,None,down,1.8232375411316752,1171.1284926817752,None,1172.9848067066632,None,4,0.6777977994643152,1172.9848067066632,None,,,,,,,,,,,,,,,,,,,,,,,,,,,,,421865,2022_Jun_15_1245,palt,2021.1.2,52.607169772218725,
10,málna,dominó,,,,,,,,,3,0,3,0,,,,,0,8,8,9,,,,,,,,,1173.6907328749076,None,,,,,,,,,,,málna,1174.7086281934753,None,4,12.087715986650437,1174.7086281934753,None,1174.7086281934753,None,1174.7086281934753,None, ,1186.8396969428286,None,1186.8396969428286,None,down,1.087787828873843,1186.8396969428286,None,1187.9648332414217,None,4,3.0078753088600934,1187.9648332414217,None,,,,,,,,,,,,,,,,,,,,,,,,,,,,,421865,2022_Jun_15_1245,palt,2021.1.2,52.607169772218725,
5,karton,hentes,,,,,,,,,3,0,3,0,,,,,0,9,9,4,,,,,,,,,1191.0093948869035,None,,,,,,,,,,,hentes,1192.0374473701231,None,4,5.010136326774955,1192.0374473701231,None,1192.0374473701231,None,1192.0374473701231,None,karton,1197.0740792807192,None,1197.0740792807192,None,down,1.6532565811648965,1197.0740792807192,None,1198.764814954251,None,4,2.7414667569100857,1198.764814954251,None,,,,,,,,,,,,,,,,,,,,,,,,,,,,,421865,2022_Jun_15_1245,palt,2021.1.2,52.607169772218725,
,,,,,,,,,,,3,0,3,0,,,,,,,,,,,,,,,,,,,,,,,,,,,,,,,,,,,,,,,,,,,,,,,,,,,,,,,,,,,,,,,,,,,,,,,,,,,4,10.02032552473247,1201.5548584517092,None,1201.5548584517092,None,,,421865,2022_Jun_15_1245,palt,2021.1.2,52.607169772218725,
,,,,,,,,,,,,,,,,,,,,,,,,,,,,,,,,,,,,,,,,,,,,,,,,,,,,,,,,,,,,,,,,,,,,,,,,,,,,,,,,,,,,,,,,,,,,,,,1211.5983480573632,None,,,,,,
