itemno,wordA,wordB,enc_gyak.thisRepN,enc_gyak.thisTrialN,enc_gyak.thisN,enc_gyak.thisIndex,rec_gyak.thisRepN,rec_gyak.thisTrialN,rec_gyak.thisN,rec_gyak.thisIndex,repeat_task.thisRepN,repeat_task.thisTrialN,repeat_task.thisN,repeat_task.thisIndex,enc_loop.thisRepN,enc_loop.thisTrialN,enc_loop.thisN,enc_loop.thisIndex,test_loop.thisRepN,test_loop.thisTrialN,test_loop.thisN,test_loop.thisIndex,int.started,int.stopped,int_key.keys,int_key.rt,int_key.started,int_key.stopped,prepare_gyak_text.started,prepare_gyak_text.stopped,fix.started,fix.stopped,word1.started,word1.stopped,word2.started,word2.stopped,gykrec_inst.started,gykrec_inst.stopped,gyakrec_inst.keys,gyakrec_inst.rt,gyakrec_inst.started,gyakrec_inst.stopped,cueword,cueword1.started,cueword1.stopped,cue_resp.keys,cue_resp.started,cue_resp.stopped,cue_cont_text.started,cue_cont_text.stopped,cue_space.started,cue_space.stopped,test_ansbox.text,test_ansbox.started,test_ansbox.stopped,ans_text.started,ans_text.stopped,ans_continue.keys,ans_continue.rt,ans_continue.started,ans_continue.stopped,feedback_text.started,feedback_text.stopped,feedback_cont.keys,feedback_cont.rt,feedback_cont.started,feedback_cont.stopped,cue_resp.rt,main_prep.started,main_prep.stopped,main_prep_resp.keys,main_prep_resp.rt,main_prep_resp.started,main_prep_resp.stopped,preparation.started,preparation.stopped,break_text.started,break_text.stopped,key_resp.keys,key_resp.rt,key_resp.started,key_resp.stopped,test_instruction.started,test_instruction.stopped,test_i_key.keys,test_i_key.rt,test_i_key.started,test_i_key.stopped,rep_routine.keys,rep_routine.rt,rep_routine.started,rep_routine.stopped,encrep_textbox.started,encrep_textbox.stopped,Résztvevő kódja,date,expName,psychopyVersion,frameRate,
,,,,,,,,,,,,,,,,,,,,,,,16.400457676965743,None,4,55.66591517115012,16.400457676965743,None,,,,,,,,,,,,,,,,,,,,,,,,,,,,,,,,,,,,,,,,,,,,,,,,,,,,,,,,,,,,,,,,,,,593598,2022_Jun_23_1046,palt,2021.1.2,54.85212930844152,
2,lepke,szintetizátor,0,0,0,1,,,,,,,,,,,,,,,,,,,,,,,72.10649736272171,None,75.13435142347589,None,76.15444866940379,None,76.15444866940379,None,,,,,,,,,,,,,,,,,,,,,,,,,,,,,,,,,,,,,,,,,,,,,,,,,,,,,,,,,,,593598,2022_Jun_23_1046,palt,2021.1.2,54.85212930844152,
1,sapka,beton,0,1,1,0,,,,,,,,,,,,,,,,,,,,,,,,,82.12660953681916,None,83.14555699098855,None,83.14555699098855,None,,,,,,,,,,,,,,,,,,,,,,,,,,,,,,,,,,,,,,,,,,,,,,,,,,,,,,,,,,,593598,2022_Jun_23_1046,palt,2021.1.2,54.85212930844152,
3,majoránna,szikla,0,2,2,2,,,,,,,,,,,,,,,,,,,,,,,,,89.11369809834287,None,90.1392690599896,None,90.1392690599896,None,,,,,,,,,,,,,,,,,,,,,,,,,,,,,,,,,,,,,,,,,,,,,,,,,,,,,,,,,,,593598,2022_Jun_23_1046,palt,2021.1.2,54.85212930844152,
4,kard,harcsa,0,3,3,3,,,,,,,,,,,,,,,,,,,,,,,,,96.12257453706115,None,97.13262626994401,None,97.13262626994401,None,,,,,,,,,,,,,,,,,,,,,,,,,,,,,,,,,,,,,,,,,,,,,,,,,,,,,,,,,,,593598,2022_Jun_23_1046,palt,2021.1.2,54.85212930844152,
,,,,,,,,,,,,,,,,,,,,,,,,,,,,,,,,,,,,,103.13378445850685,None,4,22.052478629164398,103.13378445850685,None,,,,,,,,,,,,,,,,,,,,,,,,,,,,,,,,,,,,,,,,,,,,,,,,,,,,,593598,2022_Jun_23_1046,palt,2021.1.2,54.85212930844152,
4,kard,harcsa,,,,,0,0,0,3,,,,,,,,,,,,,,,,,,,,,125.22187645174563,None,,,,,,,,,,,kard,126.23647945513949,None,None,126.23647945513949,None,126.23647945513949,None,126.23647945513949,None, ,141.237950516399,None,141.237950516399,None,down,8.197015829384327,141.237950516399,None,149.4949840856716,None,4,3.1100792256183922,149.4949840856716,None,,,,,,,,,,,,,,,,,,,,,,,,,,,,593598,2022_Jun_23_1046,palt,2021.1.2,54.85212930844152,
1,sapka,beton,,,,,0,1,1,0,,,,,,,,,,,,,,,,,,,,,152.6663334746845,None,,,,,,,,,,,beton,153.68407266866416,None,4,153.68407266866416,None,153.68407266866416,None,153.68407266866416,None,sár,168.5336636635475,None,168.5336636635475,None,down,2.037212871015072,168.5336636635475,None,170.59911531070247,None,4,11.066570959519595,170.59911531070247,None,14.822899788152426,,,,,,,,,,,,,,,,,,,,,,,,,,,593598,2022_Jun_23_1046,palt,2021.1.2,54.85212930844152,
3,majoránna,szikla,,,,,0,2,2,2,,,,,,,,,,,,,,,,,,,,,181.6952785467729,None,,,,,,,,,,,majoránna,182.71744491904974,None,None,182.71744491904974,None,182.71744491904974,None,182.71744491904974,None, ,197.71421107277274,None,197.71421107277274,None,down,2.4881543810479343,197.71421107277274,None,200.2432898771949,None,4,3.889317110646516,200.2432898771949,None,,,,,,,,,,,,,,,,,,,,,,,,,,,,593598,2022_Jun_23_1046,palt,2021.1.2,54.85212930844152,
2,lepke,szintetizátor,,,,,0,3,3,1,,,,,,,,,,,,,,,,,,,,,204.15794469416142,None,,,,,,,,,,,lepke,205.16506425710395,None,None,205.16506425710395,None,205.16506425710395,None,205.16506425710395,None, ,220.17609223956242,None,220.17609223956242,None,down,1.3220488741062582,220.17609223956242,None,221.53525663958862,None,4,10.757198402658105,221.53525663958862,None,,,,,,,,,,,,,,,,,,,,,,,,,,,,593598,2022_Jun_23_1046,palt,2021.1.2,54.85212930844152,
,,,,,,,,,,,,,,,,,,,,,,,,,,,,,,,,,,,,,,,,,,,,,,,,,,,,,,,,,,,,,,,,,,,,,232.32041018037125,None,4,112.76645582495257,232.32041018037125,None,,,,,,,,,,,,,,,,,,,,,593598,2022_Jun_23_1046,palt,2021.1.2,54.85212930844152,
5,karton,hentes,,,,,,,,,0,0,0,0,0,0,0,4,,,,,,,,,,,,,349.156415164005,None,350.146550656762,None,350.146550656762,None,,,,,,,,,,,,,,,,,,,,,,,,,,,,,,,,,,,,,,,345.1315974602476,None,,,,,,,,,,,,,,,,,,,593598,2022_Jun_23_1046,palt,2021.1.2,54.85212930844152,
1,bagoly,kirakó,,,,,,,,,0,0,0,0,0,1,1,0,,,,,,,,,,,,,356.1334342653863,None,357.14638644549996,None,357.14638644549996,None,,,,,,,,,,,,,,,,,,,,,,,,,,,,,,,,,,,,,,,,,,,,,,,,,,,,,,,,,,,593598,2022_Jun_23_1046,palt,2021.1.2,54.85212930844152,
8,szalvéta,puska,,,,,,,,,0,0,0,0,0,2,2,7,,,,,,,,,,,,,363.1473570968956,None,364.1499350303784,None,364.1499350303784,None,,,,,,,,,,,,,,,,,,,,,,,,,,,,,,,,,,,,,,,,,,,,,,,,,,,,,,,,,,,593598,2022_Jun_23_1046,palt,2021.1.2,54.85212930844152,
3,fogó,limonádé,,,,,,,,,0,0,0,0,0,3,3,2,,,,,,,,,,,,,370.14681967766955,None,371.14963428722695,None,371.14963428722695,None,,,,,,,,,,,,,,,,,,,,,,,,,,,,,,,,,,,,,,,,,,,,,,,,,,,,,,,,,,,593598,2022_Jun_23_1046,palt,2021.1.2,54.85212930844152,
10,málna,dominó,,,,,,,,,0,0,0,0,0,4,4,9,,,,,,,,,,,,,377.1403659800999,None,378.14492595847696,None,378.14492595847696,None,,,,,,,,,,,,,,,,,,,,,,,,,,,,,,,,,,,,,,,,,,,,,,,,,,,,,,,,,,,593598,2022_Jun_23_1046,palt,2021.1.2,54.85212930844152,
6,menta,triatlon,,,,,,,,,0,0,0,0,0,5,5,5,,,,,,,,,,,,,384.13912226445973,None,385.1458994089626,None,385.1458994089626,None,,,,,,,,,,,,,,,,,,,,,,,,,,,,,,,,,,,,,,,,,,,,,,,,,,,,,,,,,,,593598,2022_Jun_23_1046,palt,2021.1.2,54.85212930844152,
7,csavarhúzó,hering,,,,,,,,,0,0,0,0,0,6,6,6,,,,,,,,,,,,,391.13396764174104,None,392.15268401801586,None,392.15268401801586,None,,,,,,,,,,,,,,,,,,,,,,,,,,,,,,,,,,,,,,,,,,,,,,,,,,,,,,,,,,,593598,2022_Jun_23_1046,palt,2021.1.2,54.85212930844152,
2,kötény,tisztás,,,,,,,,,0,0,0,0,0,7,7,1,,,,,,,,,,,,,398.14625364588574,None,399.1497969436459,None,399.1497969436459,None,,,,,,,,,,,,,,,,,,,,,,,,,,,,,,,,,,,,,,,,,,,,,,,,,,,,,,,,,,,593598,2022_Jun_23_1046,palt,2021.1.2,54.85212930844152,
9,szilva,kecske,,,,,,,,,0,0,0,0,0,8,8,8,,,,,,,,,,,,,405.13324641715735,None,406.15120735857636,None,406.15120735857636,None,,,,,,,,,,,,,,,,,,,,,,,,,,,,,,,,,,,,,,,,,,,,,,,,,,,,,,,,,,,593598,2022_Jun_23_1046,palt,2021.1.2,54.85212930844152,
4,mocsár,ananász,,,,,,,,,0,0,0,0,0,9,9,3,,,,,,,,,,,,,412.14476579008624,None,413.156366024632,None,413.156366024632,None,,,,,,,,,,,,,,,,,,,,,,,,,,,,,,,,,,,,,,,,,,,,,,,,,,,,,,,,,,,593598,2022_Jun_23_1046,palt,2021.1.2,54.85212930844152,
10,málna,dominó,,,,,,,,,0,0,0,0,,,,,0,0,0,9,,,,,,,,,449.9865648262203,None,,,,,,,,,,,málna,450.9792073434219,None,None,450.9792073434219,None,450.9792073434219,None,450.9792073434219,None, ,465.9707125099376,None,465.9707125099376,None,down,9.4605618766509,465.9707125099376,None,475.47266532015055,None,4,5.659591163042933,475.47266532015055,None,,,,,,,,445.9624151652679,None,419.14073047973216,None,u,3.97132457094267,419.14073047973216,None,423.1461329748854,None,4,22.784570714458823,423.1461329748854,None,,,,,,,593598,2022_Jun_23_1046,palt,2021.1.2,54.85212930844152,
5,karton,hentes,,,,,,,,,0,0,0,0,,,,,0,1,1,4,,,,,,,,,481.17646700236946,None,,,,,,,,,,,hentes,482.19592730654404,None,None,482.19592730654404,None,482.19592730654404,None,482.19592730654404,None, ,497.19878887804225,None,497.19878887804225,None,down,1.8327241749502718,497.19878887804225,None,499.06681603286415,None,4,3.642196253873408,499.06681603286415,None,,,,,,,,,,,,,,,,,,,,,,,,,,,,593598,2022_Jun_23_1046,palt,2021.1.2,54.85212930844152,
1,bagoly,kirakó,,,,,,,,,0,0,0,0,,,,,0,2,2,0,,,,,,,,,502.7365668481216,None,,,,,,,,,,,kirakó,503.76843320485204,None,None,503.76843320485204,None,503.76843320485204,None,503.76843320485204,None, ,518.759174849838,None,518.759174849838,None,down,1.407731810119003,518.759174849838,None,520.1981382523663,None,4,3.2148772487416863,520.1981382523663,None,,,,,,,,,,,,,,,,,,,,,,,,,,,,593598,2022_Jun_23_1046,palt,2021.1.2,54.85212930844152,
4,mocsár,ananász,,,,,,,,,0,0,0,0,,,,,0,3,3,3,,,,,,,,,523.4325383175164,None,,,,,,,,,,,mocsár,524.443078330718,None,None,524.443078330718,None,524.443078330718,None,524.443078330718,None, ,539.4450298971497,None,539.4450298971497,None,down,1.3779986477456987,539.4450298971497,None,540.8549738968723,None,4,2.219588065519929,540.8549738968723,None,,,,,,,,,,,,,,,,,,,,,,,,,,,,593598,2022_Jun_23_1046,palt,2021.1.2,54.85212930844152,
9,szilva,kecske,,,,,,,,,0,0,0,0,,,,,0,4,4,8,,,,,,,,,543.1164306020364,None,,,,,,,,,,,szilva,544.133198833093,None,None,544.133198833093,None,544.133198833093,None,544.133198833093,None, ,559.131566981785,None,559.131566981785,None,down,3.9468604819849133,559.131566981785,None,563.1095203468576,None,4,3.1018266659229994,563.1095203468576,None,,,,,,,,,,,,,,,,,,,,,,,,,,,,593598,2022_Jun_23_1046,palt,2021.1.2,54.85212930844152,
6,menta,triatlon,,,,,,,,,0,0,0,0,,,,,0,5,5,5,,,,,,,,,566.2446791436523,None,,,,,,,,,,,triatlon,567.2604677039199,None,None,567.2604677039199,None,567.2604677039199,None,567.2604677039199,None, ,582.27058257116,None,582.27058257116,None,down,1.6234727245755494,582.27058257116,None,583.9314460624009,None,4,2.508738974109292,583.9314460624009,None,,,,,,,,,,,,,,,,,,,,,,,,,,,,593598,2022_Jun_23_1046,palt,2021.1.2,54.85212930844152,
8,szalvéta,puska,,,,,,,,,0,0,0,0,,,,,0,6,6,7,,,,,,,,,586.4697598963976,None,,,,,,,,,,,puska,587.4867987032048,None,None,587.4867987032048,None,587.4867987032048,None,587.4867987032048,None, ,602.4852330964059,None,602.4852330964059,None,down,1.7445805547758937,602.4852330964059,None,604.2664611120708,None,4,1.9626888511702418,604.2664611120708,None,,,,,,,,,,,,,,,,,,,,,,,,,,,,593598,2022_Jun_23_1046,palt,2021.1.2,54.85212930844152,
3,fogó,limonádé,,,,,,,,,0,0,0,0,,,,,0,7,7,2,,,,,,,,,606.2708649653941,None,,,,,,,,,,,fogó,607.293929213658,None,None,607.293929213658,None,607.293929213658,None,607.293929213658,None, ,622.2818665122613,None,622.2818665122613,None,down,2.300246379338205,622.2818665122613,None,624.6165316794068,None,4,2.141109285876155,624.6165316794068,None,,,,,,,,,,,,,,,,,,,,,,,,,,,,593598,2022_Jun_23_1046,palt,2021.1.2,54.85212930844152,
2,kötény,tisztás,,,,,,,,,0,0,0,0,,,,,0,8,8,1,,,,,,,,,626.7881802567281,None,,,,,,,,,,,kötény,627.8086849208921,None,None,627.8086849208921,None,627.8086849208921,None,627.8086849208921,None, ,642.79358430719,None,642.79358430719,None,down,1.4357765181921422,642.79358430719,None,644.2639158340171,None,4,2.2374494848772883,644.2639158340171,None,,,,,,,,,,,,,,,,,,,,,,,,,,,,593598,2022_Jun_23_1046,palt,2021.1.2,54.85212930844152,
7,csavarhúzó,hering,,,,,,,,,0,0,0,0,,,,,0,9,9,6,,,,,,,,,646.5426100790501,None,,,,,,,,,,,hering,647.5662179668434,None,None,647.5662179668434,None,647.5662179668434,None,647.5662179668434,None, ,662.5478206835687,None,662.5478206835687,None,down,2.40146067366004,662.5478206835687,None,664.9905600170605,None,4,3.7996679074130952,664.9905600170605,None,,,,,,,,,,,,,,,,,,,,,,,,,,,,593598,2022_Jun_23_1046,palt,2021.1.2,54.85212930844152,
,,,,,,,,,,,0,0,0,0,,,,,,,,,,,,,,,,,,,,,,,,,,,,,,,,,,,,,,,,,,,,,,,,,,,,,,,,,,,,,,,,,,,,,,,,,,,4,30.56994382617995,668.8888453133404,None,668.8888453133404,None,593598,2022_Jun_23_1046,palt,2021.1.2,54.85212930844152,
1,bagoly,kirakó,,,,,,,,,1,0,1,0,0,0,0,0,,,,,,,,,,,,,703.5298417038284,None,704.5301502221264,None,704.5301502221264,None,,,,,,,,,,,,,,,,,,,,,,,,,,,,,,,,,,,,,,,699.504507729318,None,,,,,,,,,,,,,,,,,,,593598,2022_Jun_23_1046,palt,2021.1.2,54.85212930844152,
3,fogó,limonádé,,,,,,,,,1,0,1,0,0,1,1,2,,,,,,,,,,,,,710.5105745350011,None,711.5174008184113,None,711.5174008184113,None,,,,,,,,,,,,,,,,,,,,,,,,,,,,,,,,,,,,,,,,,,,,,,,,,,,,,,,,,,,593598,2022_Jun_23_1046,palt,2021.1.2,54.85212930844152,
10,málna,dominó,,,,,,,,,1,0,1,0,0,2,2,9,,,,,,,,,,,,,717.5134205562063,None,718.5085934228264,None,718.5085934228264,None,,,,,,,,,,,,,,,,,,,,,,,,,,,,,,,,,,,,,,,,,,,,,,,,,,,,,,,,,,,593598,2022_Jun_23_1046,palt,2021.1.2,54.85212930844152,
5,karton,hentes,,,,,,,,,1,0,1,0,0,3,3,4,,,,,,,,,,,,,724.5093793366104,None,725.5094959638081,None,725.5094959638081,None,,,,,,,,,,,,,,,,,,,,,,,,,,,,,,,,,,,,,,,,,,,,,,,,,,,,,,,,,,,593598,2022_Jun_23_1046,palt,2021.1.2,54.85212930844152,
6,menta,triatlon,,,,,,,,,1,0,1,0,0,4,4,5,,,,,,,,,,,,,731.5090807699598,None,732.5175093594007,None,732.5175093594007,None,,,,,,,,,,,,,,,,,,,,,,,,,,,,,,,,,,,,,,,,,,,,,,,,,,,,,,,,,,,593598,2022_Jun_23_1046,palt,2021.1.2,54.85212930844152,
2,kötény,tisztás,,,,,,,,,1,0,1,0,0,5,5,1,,,,,,,,,,,,,738.5089849801734,None,739.5192102547735,None,739.5192102547735,None,,,,,,,,,,,,,,,,,,,,,,,,,,,,,,,,,,,,,,,,,,,,,,,,,,,,,,,,,,,593598,2022_Jun_23_1046,palt,2021.1.2,54.85212930844152,
9,szilva,kecske,,,,,,,,,1,0,1,0,0,6,6,8,,,,,,,,,,,,,745.5091053396463,None,746.5150620490313,None,746.5150620490313,None,,,,,,,,,,,,,,,,,,,,,,,,,,,,,,,,,,,,,,,,,,,,,,,,,,,,,,,,,,,593598,2022_Jun_23_1046,palt,2021.1.2,54.85212930844152,
4,mocsár,ananász,,,,,,,,,1,0,1,0,0,7,7,3,,,,,,,,,,,,,752.5087878019549,None,753.5168251451105,None,753.5168251451105,None,,,,,,,,,,,,,,,,,,,,,,,,,,,,,,,,,,,,,,,,,,,,,,,,,,,,,,,,,,,593598,2022_Jun_23_1046,palt,2021.1.2,54.85212930844152,
7,csavarhúzó,hering,,,,,,,,,1,0,1,0,0,8,8,6,,,,,,,,,,,,,759.5133418715559,None,760.5298743592575,None,760.5298743592575,None,,,,,,,,,,,,,,,,,,,,,,,,,,,,,,,,,,,,,,,,,,,,,,,,,,,,,,,,,,,593598,2022_Jun_23_1046,palt,2021.1.2,54.85212930844152,
8,szalvéta,puska,,,,,,,,,1,0,1,0,0,9,9,7,,,,,,,,,,,,,766.5087576340884,None,767.5169685189612,None,767.5169685189612,None,,,,,,,,,,,,,,,,,,,,,,,,,,,,,,,,,,,,,,,,,,,,,,,,,,,,,,,,,,,593598,2022_Jun_23_1046,palt,2021.1.2,54.85212930844152,
5,karton,hentes,,,,,,,,,1,0,1,0,,,,,0,0,0,4,,,,,,,,,794.4847255335189,None,,,,,,,,,,,hentes,795.4599992660806,None,None,795.4599992660806,None,795.4599992660806,None,795.4599992660806,None,karton,810.464446971193,None,810.464446971193,None,down,4.851047750096768,810.464446971193,None,815.3474584231153,None,4,9.332021300215274,815.3474584231153,None,,,,,,,,790.4565641982481,None,773.5125410296023,None,u,2.699891396332532,773.5125410296023,None,776.2474816241302,None,4,14.171557452529669,776.2474816241302,None,,,,,,,593598,2022_Jun_23_1046,palt,2021.1.2,54.85212930844152,
9,szilva,kecske,,,,,,,,,1,0,1,0,,,,,0,1,1,8,,,,,,,,,824.7245495533571,None,,,,,,,,,,,szilva,825.7377676442266,None,None,825.7377676442266,None,825.7377676442266,None,825.7377676442266,None, ,840.7291157520376,None,840.7291157520376,None,down,5.130426209885627,840.7291157520376,None,845.906884628348,None,4,1.377588118892163,845.906884628348,None,,,,,,,,,,,,,,,,,,,,,,,,,,,,593598,2022_Jun_23_1046,palt,2021.1.2,54.85212930844152,
8,szalvéta,puska,,,,,,,,,1,0,1,0,,,,,0,2,2,7,,,,,,,,,847.3118935758248,None,,,,,,,,,,,puska,848.3433291884139,None,None,848.3433291884139,None,848.3433291884139,None,848.3433291884139,None, ,863.3343821512535,None,863.3343821512535,None,down,10.012414760887623,863.3343821512535,None,873.3890390703455,None,4,1.8689775909297168,873.3890390703455,None,,,,,,,,,,,,,,,,,,,,,,,,,,,,593598,2022_Jun_23_1046,palt,2021.1.2,54.85212930844152,
6,menta,triatlon,,,,,,,,,1,0,1,0,,,,,0,3,3,5,,,,,,,,,875.278555536177,None,,,,,,,,,,,triatlon,876.286339408718,None,None,876.286339408718,None,876.286339408718,None,876.286339408718,None, ,891.3077245326713,None,891.3077245326713,None,down,4.327133832033724,891.3077245326713,None,895.6564092547633,None,4,0.7880704714916646,895.6564092547633,None,,,,,,,,,,,,,,,,,,,,,,,,,,,,593598,2022_Jun_23_1046,palt,2021.1.2,54.85212930844152,
10,málna,dominó,,,,,,,,,1,0,1,0,,,,,0,4,4,9,,,,,,,,,896.4782895632088,None,,,,,,,,,,,málna,897.4972171131521,None,None,897.4972171131521,None,897.4972171131521,None,897.4972171131521,None, 4,912.4983454449102,None,912.4983454449102,None,down,2.2240360816940665,912.4983454449102,None,914.7491570166312,None,4,1.8604541444219649,914.7491570166312,None,,,,,,,,,,,,,,,,,,,,,,,,,,,,593598,2022_Jun_23_1046,palt,2021.1.2,54.85212930844152,
4,mocsár,ananász,,,,,,,,,1,0,1,0,,,,,0,5,5,3,,,,,,,,,916.6460717068985,None,,,,,,,,,,,mocsár,917.67358459346,None,None,917.67358459346,None,917.67358459346,None,917.67358459346,None, ,932.6707133804448,None,932.6707133804448,None,down,22.035617718007416,932.6707133804448,None,954.7399680158123,None,4,2.444231543224305,954.7399680158123,None,,,,,,,,,,,,,,,,,,,,,,,,,,,,593598,2022_Jun_23_1046,palt,2021.1.2,54.85212930844152,
7,csavarhúzó,hering,,,,,,,,,1,0,1,0,,,,,0,6,6,6,,,,,,,,,957.2161051025614,None,,,,,,,,,,,hering,958.2462270236574,None,None,958.2462270236574,None,958.2462270236574,None,958.2462270236574,None, ,973.2235039495863,None,973.2235039495863,None,down,1.8502472192049026,973.2235039495863,None,975.0960490964353,None,4,0.8928031832911074,975.0960490964353,None,,,,,,,,,,,,,,,,,,,,,,,,,,,,593598,2022_Jun_23_1046,palt,2021.1.2,54.85212930844152,
2,kötény,tisztás,,,,,,,,,1,0,1,0,,,,,0,7,7,1,,,,,,,,,976.0101014939137,None,,,,,,,,,,,kötény,977.0314334356226,None,None,977.0314334356226,None,977.0314334356226,None,977.0314334356226,None, ,992.0324659771286,None,992.0324659771286,None,down,2.2410764433443546,992.0324659771286,None,994.3012459543534,None,4,1.466269158758223,994.3012459543534,None,,,,,,,,,,,,,,,,,,,,,,,,,,,,593598,2022_Jun_23_1046,palt,2021.1.2,54.85212930844152,
1,bagoly,kirakó,,,,,,,,,1,0,1,0,,,,,0,8,8,0,,,,,,,,,995.799395465292,None,,,,,,,,,,,kirakó,996.8076352737844,None,None,996.8076352737844,None,996.8076352737844,None,996.8076352737844,None, ,1011.8246756354347,None,1011.8246756354347,None,down,2.1929882946424186,1011.8246756354347,None,1014.0523927910253,None,4,1.371800597757101,1014.0523927910253,None,,,,,,,,,,,,,,,,,,,,,,,,,,,,593598,2022_Jun_23_1046,palt,2021.1.2,54.85212930844152,
3,fogó,limonádé,,,,,,,,,1,0,1,0,,,,,0,9,9,2,,,,,,,,,1015.467349906452,None,,,,,,,,,,,fogó,1016.4865601612255,None,4,1016.4865601612255,None,1016.4865601612255,None,1016.4865601612255,None,lavina,1025.415021804627,None,1025.415021804627,None,down,2.010137570556253,1025.415021804627,None,1027.4493587976322,None,4,3.2257068092003465,1027.4493587976322,None,8.890620850026608,,,,,,,,,,,,,,,,,,,,,,,,,,,593598,2022_Jun_23_1046,palt,2021.1.2,54.85212930844152,
,,,,,,,,,,,1,0,1,0,,,,,,,,,,,,,,,,,,,,,,,,,,,,,,,,,,,,,,,,,,,,,,,,,,,,,,,,,,,,,,,,,,,,,,,,,,,4,35.87569160060957,1030.7370722335763,None,1030.7370722335763,None,593598,2022_Jun_23_1046,palt,2021.1.2,54.85212930844152,
9,szilva,kecske,,,,,,,,,2,0,2,0,0,0,0,8,,,,,,,,,,,,,1070.6762166419066,None,1071.6482702125795,None,1071.6482702125795,None,,,,,,,,,,,,,,,,,,,,,,,,,,,,,,,,,,,,,,,1066.646829007659,None,,,,,,,,,,,,,,,,,,,593598,2022_Jun_23_1046,palt,2021.1.2,54.85212930844152,
10,málna,dominó,,,,,,,,,2,0,2,0,0,1,1,9,,,,,,,,,,,,,1077.6422808477655,None,1078.6608830844052,None,1078.6608830844052,None,,,,,,,,,,,,,,,,,,,,,,,,,,,,,,,,,,,,,,,,,,,,,,,,,,,,,,,,,,,593598,2022_Jun_23_1046,palt,2021.1.2,54.85212930844152,
3,fogó,limonádé,,,,,,,,,2,0,2,0,0,2,2,2,,,,,,,,,,,,,1084.6421639090404,None,1085.6540735950693,None,1085.6540735950693,None,,,,,,,,,,,,,,,,,,,,,,,,,,,,,,,,,,,,,,,,,,,,,,,,,,,,,,,,,,,593598,2022_Jun_23_1046,palt,2021.1.2,54.85212930844152,
5,karton,hentes,,,,,,,,,2,0,2,0,0,3,3,4,,,,,,,,,,,,,1091.6403199508786,None,1092.6611853828654,None,1092.6611853828654,None,,,,,,,,,,,,,,,,,,,,,,,,,,,,,,,,,,,,,,,,,,,,,,,,,,,,,,,,,,,593598,2022_Jun_23_1046,palt,2021.1.2,54.85212930844152,
7,csavarhúzó,hering,,,,,,,,,2,0,2,0,0,4,4,6,,,,,,,,,,,,,1098.6551111130975,None,1099.646498407703,None,1099.646498407703,None,,,,,,,,,,,,,,,,,,,,,,,,,,,,,,,,,,,,,,,,,,,,,,,,,,,,,,,,,,,593598,2022_Jun_23_1046,palt,2021.1.2,54.85212930844152,
6,menta,triatlon,,,,,,,,,2,0,2,0,0,5,5,5,,,,,,,,,,,,,1105.6555194649845,None,1106.6464461586438,None,1106.6464461586438,None,,,,,,,,,,,,,,,,,,,,,,,,,,,,,,,,,,,,,,,,,,,,,,,,,,,,,,,,,,,593598,2022_Jun_23_1046,palt,2021.1.2,54.85212930844152,
1,bagoly,kirakó,,,,,,,,,2,0,2,0,0,6,6,0,,,,,,,,,,,,,1112.6432480779476,None,1113.6600726014003,None,1113.6600726014003,None,,,,,,,,,,,,,,,,,,,,,,,,,,,,,,,,,,,,,,,,,,,,,,,,,,,,,,,,,,,593598,2022_Jun_23_1046,palt,2021.1.2,54.85212930844152,
4,mocsár,ananász,,,,,,,,,2,0,2,0,0,7,7,3,,,,,,,,,,,,,1119.6396363587119,None,1120.6520206406713,None,1120.6520206406713,None,,,,,,,,,,,,,,,,,,,,,,,,,,,,,,,,,,,,,,,,,,,,,,,,,,,,,,,,,,,593598,2022_Jun_23_1046,palt,2021.1.2,54.85212930844152,
2,kötény,tisztás,,,,,,,,,2,0,2,0,0,8,8,1,,,,,,,,,,,,,1126.6549552991055,None,1127.6566493515857,None,1127.6566493515857,None,,,,,,,,,,,,,,,,,,,,,,,,,,,,,,,,,,,,,,,,,,,,,,,,,,,,,,,,,,,593598,2022_Jun_23_1046,palt,2021.1.2,54.85212930844152,
8,szalvéta,puska,,,,,,,,,2,0,2,0,0,9,9,7,,,,,,,,,,,,,1133.6551052038558,None,1134.649881537538,None,1134.649881537538,None,,,,,,,,,,,,,,,,,,,,,,,,,,,,,,,,,,,,,,,,,,,,,,,,,,,,,,,,,,,593598,2022_Jun_23_1046,palt,2021.1.2,54.85212930844152,
7,csavarhúzó,hering,,,,,,,,,2,0,2,0,,,,,0,0,0,6,,,,,,,,,1151.6893143733032,None,,,,,,,,,,,hering,1152.6748743378557,None,4,1152.6748743378557,None,1152.6748743378557,None,1152.6748743378557,None,csenevész,1166.0614679632708,None,1166.0614679632708,None,down,2.7063074624165893,1166.0614679632708,None,1168.804721453227,None,4,1.8866601809859276,1168.804721453227,None,13.35670216102153,,,,,,,1147.6721660923213,None,1140.642213981133,None,u,1.8216504747979343,1140.642213981133,None,1142.5043544028886,None,4,5.129660200327635,1142.5043544028886,None,,,,,,,593598,2022_Jun_23_1046,palt,2021.1.2,54.85212930844152,
2,kötény,tisztás,,,,,,,,,2,0,2,0,,,,,0,1,1,1,,,,,,,,,1170.725366878789,None,,,,,,,,,,,kötény,1171.7447105553001,None,None,1171.7447105553001,None,1171.7447105553001,None,1171.7447105553001,None, ,1186.7399297622032,None,1186.7399297622032,None,down,3.2433791365474463,1186.7399297622032,None,1190.0104498211294,None,4,0.7991003203205764,1190.0104498211294,None,,,,,,,,,,,,,,,,,,,,,,,,,,,,593598,2022_Jun_23_1046,palt,2021.1.2,54.85212930844152,
5,karton,hentes,,,,,,,,,2,0,2,0,,,,,0,2,2,4,,,,,,,,,1190.8450994379818,None,,,,,,,,,,,hentes,1191.8632177487016,None,4,1191.8632177487016,None,1191.8632177487016,None,1191.8632177487016,None,karton,1198.0154041559435,None,1198.0154041559435,None,down,1.8557613654993474,1198.0154041559435,None,1199.9041424831375,None,4,1.1079195961356163,1199.9041424831375,None,6.120001269038767,,,,,,,,,,,,,,,,,,,,,,,,,,,593598,2022_Jun_23_1046,palt,2021.1.2,54.85212930844152,
9,szilva,kecske,,,,,,,,,2,0,2,0,,,,,0,3,3,8,,,,,,,,,1201.0432009915821,None,,,,,,,,,,,szilva,1202.0674091223627,None,None,1202.0674091223627,None,1202.0674091223627,None,1202.0674091223627,None, ,1217.0558841512538,None,1217.0558841512538,None,down,1.4710941151715815,1217.0558841512538,None,1218.5636869953014,None,4,1.185273464769125,1218.5636869953014,None,,,,,,,,,,,,,,,,,,,,,,,,,,,,593598,2022_Jun_23_1046,palt,2021.1.2,54.85212930844152,
1,bagoly,kirakó,,,,,,,,,2,0,2,0,,,,,0,4,4,0,,,,,,,,,1219.7860557707027,None,,,,,,,,,,,kirakó,1220.8026737854816,None,None,1220.8026737854816,None,1220.8026737854816,None,1220.8026737854816,None, ,1235.7875025733374,None,1235.7875025733374,None,down,4.707139404956251,1235.7875025733374,None,1240.5325039201416,None,4,0.9543289942666888,1240.5325039201416,None,,,,,,,,,,,,,,,,,,,,,,,,,,,,593598,2022_Jun_23_1046,palt,2021.1.2,54.85212930844152,
4,mocsár,ananász,,,,,,,,,2,0,2,0,,,,,0,5,5,3,,,,,,,,,1241.508418326266,None,,,,,,,,,,,mocsár,1242.5290511250496,None,None,1242.5290511250496,None,1242.5290511250496,None,1242.5290511250496,None,alma,1257.5258471351117,None,1257.5258471351117,None,down,2.0086528253741562,1257.5258471351117,None,1259.577215781901,None,4,0.9991472200490534,1259.577215781901,None,,,,,,,,,,,,,,,,,,,,,,,,,,,,593598,2022_Jun_23_1046,palt,2021.1.2,54.85212930844152,
8,szalvéta,puska,,,,,,,,,2,0,2,0,,,,,0,6,6,7,,,,,,,,,1260.6171061084606,None,,,,,,,,,,,puska,1261.6251801503822,None,4,1261.6251801503822,None,1261.6251801503822,None,1261.6251801503822,None,szuper,1272.3246327168308,None,1272.3246327168308,None,down,2.5537099041976035,1272.3246327168308,None,1274.902839676477,None,4,0.8524618968367577,1274.902839676477,None,10.66123825404793,,,,,,,,,,,,,,,,,,,,,,,,,,,593598,2022_Jun_23_1046,palt,2021.1.2,54.85212930844152,
3,fogó,limonádé,,,,,,,,,2,0,2,0,,,,,0,7,7,2,,,,,,,,,1275.774116227869,None,,,,,,,,,,,fogó,1276.7934617707506,None,4,1276.7934617707506,None,1276.7934617707506,None,1276.7934617707506,None,lavina,1281.404412125703,None,1281.404412125703,None,down,2.4337269850075245,1281.404412125703,None,1283.8797060735524,None,4,1.0477886497974396,1283.8797060735524,None,4.580741974525154,,,,,,,,,,,,,,,,,,,,,,,,,,,593598,2022_Jun_23_1046,palt,2021.1.2,54.85212930844152,
10,málna,dominó,,,,,,,,,2,0,2,0,,,,,0,8,8,9,,,,,,,,,1284.9638324221596,None,,,,,,,,,,,málna,1285.9729676186107,None,4,1285.9729676186107,None,1285.9729676186107,None,1285.9729676186107,None,dolog,1293.1052558245137,None,1293.1052558245137,None,down,2.269225960597396,1293.1052558245137,None,1295.413144257851,None,4,0.04010212188586593,1295.413144257851,None,7.09720728546381,,,,,,,,,,,,,,,,,,,,,,,,,,,593598,2022_Jun_23_1046,palt,2021.1.2,54.85212930844152,
6,menta,triatlon,,,,,,,,,2,0,2,0,,,,,0,9,9,5,,,,,,,,,1295.4802796943113,None,,,,,,,,,,,triatlon,1296.5041124401614,None,4,1296.5041124401614,None,1296.5041124401614,None,1296.5041124401614,None,menet,1309.2786416849121,None,1309.2786416849121,None,down,2.079354885034263,1309.2786416849121,None,1311.3911682213657,None,4,0.9060206520371139,1311.3911682213657,None,12.741866399999708,,,,,,,,,,,,,,,,,,,,,,,,,,,593598,2022_Jun_23_1046,palt,2021.1.2,54.85212930844152,
,,,,,,,,,,,2,0,2,0,,,,,,,,,,,,,,,,,,,,,,,,,,,,,,,,,,,,,,,,,,,,,,,,,,,,,,,,,,,,,,,,,,,,,,,,,,,4,2.9025143636390567,1312.3253788212314,None,1312.3253788212314,None,593598,2022_Jun_23_1046,palt,2021.1.2,54.85212930844152,
3,fogó,limonádé,,,,,,,,,3,0,3,0,0,0,0,2,,,,,,,,,,,,,1319.279767528642,None,1320.2717018839903,None,1320.2717018839903,None,,,,,,,,,,,,,,,,,,,,,,,,,,,,,,,,,,,,,,,1315.2598646623082,None,,,,,,,,,,,,,,,,,,,593598,2022_Jun_23_1046,palt,2021.1.2,54.85212930844152,
7,csavarhúzó,hering,,,,,,,,,3,0,3,0,0,1,1,6,,,,,,,,,,,,,1326.2726411237381,None,1327.284309157636,None,1327.284309157636,None,,,,,,,,,,,,,,,,,,,,,,,,,,,,,,,,,,,,,,,,,,,,,,,,,,,,,,,,,,,593598,2022_Jun_23_1046,palt,2021.1.2,54.85212930844152,
9,szilva,kecske,,,,,,,,,3,0,3,0,0,2,2,8,,,,,,,,,,,,,1333.2705807052553,None,1334.2843869095668,None,1334.2843869095668,None,,,,,,,,,,,,,,,,,,,,,,,,,,,,,,,,,,,,,,,,,,,,,,,,,,,,,,,,,,,593598,2022_Jun_23_1046,palt,2021.1.2,54.85212930844152,
6,menta,triatlon,,,,,,,,,3,0,3,0,0,3,3,5,,,,,,,,,,,,,1340.2726230854169,None,1341.2741588358767,None,1341.2741588358767,None,,,,,,,,,,,,,,,,,,,,,,,,,,,,,,,,,,,,,,,,,,,,,,,,,,,,,,,,,,,593598,2022_Jun_23_1046,palt,2021.1.2,54.85212930844152,
1,bagoly,kirakó,,,,,,,,,3,0,3,0,0,4,4,0,,,,,,,,,,,,,1347.2688997145742,None,1348.2763016712852,None,1348.2763016712852,None,,,,,,,,,,,,,,,,,,,,,,,,,,,,,,,,,,,,,,,,,,,,,,,,,,,,,,,,,,,593598,2022_Jun_23_1046,palt,2021.1.2,54.85212930844152,
4,mocsár,ananász,,,,,,,,,3,0,3,0,0,5,5,3,,,,,,,,,,,,,1354.271476093214,None,1355.2815794530325,None,1355.2815794530325,None,,,,,,,,,,,,,,,,,,,,,,,,,,,,,,,,,,,,,,,,,,,,,,,,,,,,,,,,,,,593598,2022_Jun_23_1046,palt,2021.1.2,54.85212930844152,
10,málna,dominó,,,,,,,,,3,0,3,0,0,6,6,9,,,,,,,,,,,,,1361.2695963694714,None,1362.2692446210422,None,1362.2692446210422,None,,,,,,,,,,,,,,,,,,,,,,,,,,,,,,,,,,,,,,,,,,,,,,,,,,,,,,,,,,,593598,2022_Jun_23_1046,palt,2021.1.2,54.85212930844152,
2,kötény,tisztás,,,,,,,,,3,0,3,0,0,7,7,1,,,,,,,,,,,,,1368.2686055023223,None,1369.2879759254865,None,1369.2879759254865,None,,,,,,,,,,,,,,,,,,,,,,,,,,,,,,,,,,,,,,,,,,,,,,,,,,,,,,,,,,,593598,2022_Jun_23_1046,palt,2021.1.2,54.85212930844152,
5,karton,hentes,,,,,,,,,3,0,3,0,0,8,8,4,,,,,,,,,,,,,1375.2722788010724,None,1376.2752128373832,None,1376.2752128373832,None,,,,,,,,,,,,,,,,,,,,,,,,,,,,,,,,,,,,,,,,,,,,,,,,,,,,,,,,,,,593598,2022_Jun_23_1046,palt,2021.1.2,54.85212930844152,
8,szalvéta,puska,,,,,,,,,3,0,3,0,0,9,9,7,,,,,,,,,,,,,1382.2702457509004,None,1383.2784494827501,None,1383.2784494827501,None,,,,,,,,,,,,,,,,,,,,,,,,,,,,,,,,,,,,,,,,,,,,,,,,,,,,,,,,,,,593598,2022_Jun_23_1046,palt,2021.1.2,54.85212930844152,
1,bagoly,kirakó,,,,,,,,,3,0,3,0,,,,,0,0,0,0,,,,,,,,,1400.1723349690437,None,,,,,,,,,,,kirakó,1401.1708508455195,None,4,1401.1708508455195,None,1401.1708508455195,None,1401.1708508455195,None,babér,1406.8298999243416,None,1406.8298999243416,None,down,2.494919707532972,1406.8298999243416,None,1409.3458296814933,None,4,1.4679097183980048,1409.3458296814933,None,5.610010493546724,,,,,,,1396.1434396579862,None,1389.2700519938953,None,u,1.9592861281707883,1389.2700519938953,None,1391.2577068987302,None,4,4.857271924614906,1391.2577068987302,None,,,,,,,593598,2022_Jun_23_1046,palt,2021.1.2,54.85212930844152,
7,csavarhúzó,hering,,,,,,,,,3,0,3,0,,,,,0,1,1,6,,,,,,,,,1410.8607779019512,None,,,,,,,,,,,hering,1411.8862956813537,None,None,1411.8862956813537,None,1411.8862956813537,None,1411.8862956813537,None, ,1426.8610861096531,None,1426.8610861096531,None,down,1.7115942635573447,1426.8610861096531,None,1428.618372216355,None,4,1.0935299433767796,1428.618372216355,None,,,,,,,,,,,,,,,,,,,,,,,,,,,,593598,2022_Jun_23_1046,palt,2021.1.2,54.85212930844152,
8,szalvéta,puska,,,,,,,,,3,0,3,0,,,,,0,2,2,7,,,,,,,,,1429.7468950655311,None,,,,,,,,,,,puska,1430.7665055859834,None,4,1430.7665055859834,None,1430.7665055859834,None,1430.7665055859834,None,szalvéta,1442.7502626450732,None,1442.7502626450732,None,down,1.90248295199126,1442.7502626450732,None,1444.692165370565,None,4,2.7314010290428996,1444.692165370565,None,11.949969303328544,,,,,,,,,,,,,,,,,,,,,,,,,,,593598,2022_Jun_23_1046,palt,2021.1.2,54.85212930844152,
10,málna,dominó,,,,,,,,,3,0,3,0,,,,,0,3,3,9,,,,,,,,,1447.4496928188019,None,,,,,,,,,,,málna,1448.4662116225809,None,4,1448.4662116225809,None,1448.4662116225809,None,1448.4662116225809,None,dominó,1457.5467365146615,None,1457.5467365146615,None,down,1.9054001937620342,1457.5467365146615,None,1459.4857854438014,None,4,1.6194492322392762,1459.4857854438014,None,9.050106270704418,,,,,,,,,,,,,,,,,,,,,,,,,,,593598,2022_Jun_23_1046,palt,2021.1.2,54.85212930844152,
2,kötény,tisztás,,,,,,,,,3,0,3,0,,,,,0,4,4,1,,,,,,,,,1461.1384489354677,None,,,,,,,,,,,kötény,1462.158390677534,None,4,1462.158390677534,None,1462.158390677534,None,1462.158390677534,None,teremtő,1476.4645278328098,None,1476.4645278328098,None,down,2.0434354906901717,1476.4645278328098,None,1478.5605081971735,None,4,0.9827475319616497,1478.5605081971735,None,14.269700245931745,,,,,,,,,,,,,,,,,,,,,,,,,,,593598,2022_Jun_23_1046,palt,2021.1.2,54.85212930844152,
5,karton,hentes,,,,,,,,,3,0,3,0,,,,,0,5,5,4,,,,,,,,,1479.5769560914487,None,,,,,,,,,,,hentes,1480.585826931987,None,4,1480.585826931987,None,1480.585826931987,None,1480.585826931987,None,karton,1483.719756320119,None,1483.719756320119,None,down,1.8922464814968407,1483.719756320119,None,1485.6571513162926,None,4,0.8337218845263124,1485.6571513162926,None,3.0901017179712653,,,,,,,,,,,,,,,,,,,,,,,,,,,593598,2022_Jun_23_1046,palt,2021.1.2,54.85212930844152,
4,mocsár,ananász,,,,,,,,,3,0,3,0,,,,,0,6,6,3,,,,,,,,,1486.5332761495374,None,,,,,,,,,,,mocsár,1487.550641512964,None,4,1487.550641512964,None,1487.550641512964,None,1487.550641512964,None,aligátor,1500.2141771730967,None,1500.2141771730967,None,down,2.1815755967982113,1500.2141771730967,None,1502.4471232821234,None,4,0.8476468934677541,1502.4471232821234,None,12.62153173238039,,,,,,,,,,,,,,,,,,,,,,,,,,,593598,2022_Jun_23_1046,palt,2021.1.2,54.85212930844152,
9,szilva,kecske,,,,,,,,,3,0,3,0,,,,,0,7,7,8,,,,,,,,,1503.3267699540593,None,,,,,,,,,,,szilva,1504.3375895619392,None,None,1504.3375895619392,None,1504.3375895619392,None,1504.3375895619392,None, 4,1519.344308859203,None,1519.344308859203,None,down,1.947157804388553,1519.344308859203,None,1521.327884601429,None,4,0.9666672474704683,1521.327884601429,None,,,,,,,,,,,,,,,,,,,,,,,,,,,,593598,2022_Jun_23_1046,palt,2021.1.2,54.85212930844152,
6,menta,triatlon,,,,,,,,,3,0,3,0,,,,,0,8,8,5,,,,,,,,,1522.3235544566996,None,,,,,,,,,,,triatlon,1523.3413825985044,None,None,1523.3413825985044,None,1523.3413825985044,None,1523.3413825985044,None,4,1538.3436038075015,None,1538.3436038075015,None,down,4.259740259498358,1538.3436038075015,None,1542.6321488749236,None,4,1.8392183035612106,1542.6321488749236,None,,,,,,,,,,,,,,,,,,,,,,,,,,,,593598,2022_Jun_23_1046,palt,2021.1.2,54.85212930844152,
3,fogó,limonádé,,,,,,,,,3,0,3,0,,,,,0,9,9,2,,,,,,,,,1544.5165642104112,None,,,,,,,,,,,fogó,1545.529524166137,None,None,1545.529524166137,None,1545.529524166137,None,1545.529524166137,None, ,1560.5316315465607,None,1560.5316315465607,None,down,1.847375384066254,1560.5316315465607,None,1562.4177085906267,None,4,0.8613672596402466,1562.4177085906267,None,,,,,,,,,,,,,,,,,,,,,,,,,,,,593598,2022_Jun_23_1046,palt,2021.1.2,54.85212930844152,
,,,,,,,,,,,3,0,3,0,,,,,,,,,,,,,,,,,,,,,,,,,,,,,,,,,,,,,,,,,,,,,,,,,,,,,,,,,,,,,,,,,,,,,,,,,,,4,5.601087403483689,1563.3218986578286,None,1563.3218986578286,None,593598,2022_Jun_23_1046,palt,2021.1.2,54.85212930844152,
