itemno,wordA,wordB,enc_gyak.thisRepN,enc_gyak.thisTrialN,enc_gyak.thisN,enc_gyak.thisIndex,rec_gyak.thisRepN,rec_gyak.thisTrialN,rec_gyak.thisN,rec_gyak.thisIndex,repeat_task.thisRepN,repeat_task.thisTrialN,repeat_task.thisN,repeat_task.thisIndex,enc_loop.thisRepN,enc_loop.thisTrialN,enc_loop.thisN,enc_loop.thisIndex,test_loop.thisRepN,test_loop.thisTrialN,test_loop.thisN,test_loop.thisIndex,int.started,int_key.started,int_key.keys,int_key.rt,prepare_gyak_text.started,fix.started,word1.started,word2.started,gykrec_inst.started,gyakrec_inst.started,gyakrec_inst.keys,gyakrec_inst.rt,cueword1.started,cue_resp.started,cue_cont_text.started,cue_space.started,cueword,cue_resp.keys,cue_resp.rt,test_ansbox.started,ans_text.started,ans_continue.started,test_ansbox.text,ans_continue.keys,ans_continue.rt,feedback_text.started,feedback_cont.started,feedback_cont.keys,feedback_cont.rt,fix.stopped,main_prep.started,main_prep_resp.started,main_prep_resp.keys,main_prep_resp.rt,preparation.started,break_text.started,key_resp.started,key_resp.keys,key_resp.rt,test_instruction.started,test_i_key.started,test_i_key.keys,test_i_key.rt,rep_routine.started,encrep_textbox.started,rep_routine.keys,rep_routine.rt,preparation.stopped,Résztvevő kódja,date,expName,psychopyVersion,frameRate,
,,,,,,,,,,,,,,,,,,,,,,,104.06043196283281,104.06043196283281,4,120.45027435198426,,,,,,,,,,,,,,,,,,,,,,,,,,,,,,,,,,,,,,,,,,,,,785280,2022-08-30_17h50.00.728,palt,2022.2.2,51.66486434510096,
3,majoránna,szikla,0,0,0,2,,,,,,,,,,,,,,,,,,,,,224.55181615334004,227.55555569380522,228.55586234573275,228.55586234573275,,,,,,,,,,,,,,,,,,,,,,,,,,,,,,,,,,,,,,,,,785280,2022-08-30_17h50.00.728,palt,2022.2.2,51.66486434510096,
1,sapka,beton,0,1,1,0,,,,,,,,,,,,,,,,,,,,,,234.54078289028257,235.55458908621222,235.55458908621222,,,,,,,,,,,,,,,,,,,,,,,,,,,,,,,,,,,,,,,,,785280,2022-08-30_17h50.00.728,palt,2022.2.2,51.66486434510096,
2,lepke,szintetizátor,0,2,2,1,,,,,,,,,,,,,,,,,,,,,,241.54063018597662,242.55383054167032,242.55383054167032,,,,,,,,,,,,,,,,,,,,,,,,,,,,,,,,,,,,,,,,,785280,2022-08-30_17h50.00.728,palt,2022.2.2,51.66486434510096,
4,kard,harcsa,0,3,3,3,,,,,,,,,,,,,,,,,,,,,,248.55041133705527,249.56867363210768,249.56867363210768,,,,,,,,,,,,,,,,,,,,,,,,,,,,,,,,,,,,,,,,,785280,2022-08-30_17h50.00.728,palt,2022.2.2,51.66486434510096,
,,,,,,,,,,,,,,,,,,,,,,,,,,,,,,,255.54932872392237,255.54932872392237,4,41.25522482767701,,,,,,,,,,,,,,,,,,,,,,,,,,,,,,,,,,,,,785280,2022-08-30_17h50.00.728,palt,2022.2.2,51.66486434510096,
4,kard,harcsa,,,,,0,0,0,3,,,,,,,,,,,,,,,,,,296.8383606476709,,,,,,,297.8583888374269,297.8583888374269,297.8583888374269,297.8583888374269,kard,4,7.740951810963452,305.6417909245938,305.6417909245938,305.6417909245938, harcsa,down,2.7522764867171645,308.4565688902512,308.4565688902512,4,5.237219734117389,,,,,,,,,,,,,,,,,,,,785280,2022-08-30_17h50.00.728,palt,2022.2.2,51.66486434510096,
2,lepke,szintetizátor,,,,,0,1,1,1,,,,,,,,,,,,,,,,,,313.7229088554159,,,,,,,314.73674117587507,314.73674117587507,314.73674117587507,314.73674117587507,lepke,4,11.446800721809268,326.21132200118154,326.21132200118154,326.21132200118154, ,down,1.6226938078179955,327.86904298327863,327.86904298327863,4,2.7038953993469477,314.73674117587507,,,,,,,,,,,,,,,,,,,785280,2022-08-30_17h50.00.728,palt,2022.2.2,51.66486434510096,
3,majoránna,szikla,,,,,0,2,2,2,,,,,,,,,,,,,,,,,,330.6082824738696,,,,,,,331.62685515359044,331.62685515359044,331.62685515359044,331.62685515359044,majoránna,4,4.636544166132808,336.30842255055904,336.30842255055904,336.30842255055904, ,down,1.7328326785936952,338.06279250141233,338.06279250141233,4,5.763521233573556,,,,,,,,,,,,,,,,,,,,785280,2022-08-30_17h50.00.728,palt,2022.2.2,51.66486434510096,
1,sapka,beton,,,,,0,3,3,0,,,,,,,,,,,,,,,,,,343.8574094781652,,,,,,,344.86770503409207,344.86770503409207,344.86770503409207,344.86770503409207,beton,4,3.088555257767439,347.9817868433893,347.9817868433893,347.9817868433893, ,down,3.115025633946061,351.129856986925,351.129856986925,4,18.610705754719675,,,,,,,,,,,,,,,,,,,,785280,2022-08-30_17h50.00.728,palt,2022.2.2,51.66486434510096,
,,,,,,,,,,,,,,,,,,,,,,,,,,,,,,,,,,,,,,,,,,,,,,,,,,,,,369.7732471060008,369.7732471060008,4,19.513635062612593,,,,,,,,,,,,,,,785280,2022-08-30_17h50.00.728,palt,2022.2.2,51.66486434510096,
8,szalvéta,puska,,,,,,,,,0,0,0,0,0,0,0,7,,,,,,,,,,393.3381637809798,394.3362629096955,394.3362629096955,,,,,,,,,,,,,,,,,,,,,,,,,,,389.30817841086537,,,,,,,,,,,,,,785280,2022-08-30_17h50.00.728,palt,2022.2.2,51.66486434510096,
9,szilva,kecske,,,,,,,,,0,0,0,0,0,1,1,8,,,,,,,,,,400.3205085704103,401.32075084373355,401.32075084373355,,,,,,,,,,,,,,,,,,,,,,,,,,,,,,,,,,,,,,,,,785280,2022-08-30_17h50.00.728,palt,2022.2.2,51.66486434510096,
1,bagoly,kirakó,,,,,,,,,0,0,0,0,0,2,2,0,,,,,,,,,,407.3230155929923,408.3245619162917,408.3245619162917,,,,,,,,,,,,,,,,,,,,,,,,,,,,,,,,,,,,,,,,,785280,2022-08-30_17h50.00.728,palt,2022.2.2,51.66486434510096,
2,kötény,tisztás,,,,,,,,,0,0,0,0,0,3,3,1,,,,,,,,,,414.31971083860844,415.32661238126457,415.32661238126457,,,,,,,,,,,,,,,,,,,,,,,,,,,,,,,,,,,,,,,,,785280,2022-08-30_17h50.00.728,palt,2022.2.2,51.66486434510096,
10,málna,dominó,,,,,,,,,0,0,0,0,0,4,4,9,,,,,,,,,,421.3207810120657,422.3304013721645,422.3304013721645,,,,,,,,,,,,,,,,,,,,,,,,,,,,,,,,,,,,,,,,,785280,2022-08-30_17h50.00.728,palt,2022.2.2,51.66486434510096,
5,karton,hentes,,,,,,,,,0,0,0,0,0,5,5,4,,,,,,,,,,428.31933856382966,429.3298966092989,429.3298966092989,,,,,,,,,,,,,,,,,,,,,,,,,,,,,,,,,,,,,,,,,785280,2022-08-30_17h50.00.728,palt,2022.2.2,51.66486434510096,
6,menta,triatlon,,,,,,,,,0,0,0,0,0,6,6,5,,,,,,,,,,435.31056351866573,436.31956497672945,436.31956497672945,,,,,,,,,,,,,,,,,,,,,,,,,,,,,,,,,,,,,,,,,785280,2022-08-30_17h50.00.728,palt,2022.2.2,51.66486434510096,
4,mocsár,ananász,,,,,,,,,0,0,0,0,0,7,7,3,,,,,,,,,,442.3116902951151,443.33002038951963,443.33002038951963,,,,,,,,,,,,,,,,,,,,,,,,,,,,,,,,,,,,,,,,,785280,2022-08-30_17h50.00.728,palt,2022.2.2,51.66486434510096,
3,fogó,limonádé,,,,,,,,,0,0,0,0,0,8,8,2,,,,,,,,,,449.313632841222,450.3177791777998,450.3177791777998,,,,,,,,,,,,,,,,,,,,,,,,,,,,,,,,,,,,,,,,,785280,2022-08-30_17h50.00.728,palt,2022.2.2,51.66486434510096,
7,csavarhúzó,hering,,,,,,,,,0,0,0,0,0,9,9,6,,,,,,,,,,456.3083600383252,457.33485498372465,457.33485498372465,,,,,,,,,,,,,,,,,,,,,,,,,,,,,,,,,,,,,,,,,785280,2022-08-30_17h50.00.728,palt,2022.2.2,51.66486434510096,
5,karton,hentes,,,,,,,,,0,0,0,0,,,,,0,0,0,4,,,,,,491.16951994318515,,,,,,,492.1770954364911,492.1770954364911,492.1770954364911,492.1770954364911,hentes,4,5.166430636309087,497.3675849856809,497.3675849856809,497.3675849856809, ,down,1.6000198861584067,498.99423674028367,498.99423674028367,4,2.262881805188954,,,,,,487.1547785513103,463.3113718247041,463.3113718247041,u,2.8563326941803098,466.20535254478455,466.20535254478455,4,20.927212606184185,,,,,,785280,2022-08-30_17h50.00.728,palt,2022.2.2,51.66486434510096,
9,szilva,kecske,,,,,,,,,0,0,0,0,,,,,0,1,1,8,,,,,,501.28551692981273,,,,,,,502.2940963525325,502.2940963525325,502.2940963525325,502.2940963525325,kecske,4,5.653699589893222,507.996941562742,507.996941562742,507.996941562742, ,down,1.1626397799700499,509.17731127515435,509.17731127515435,4,1.262016274034977,502.2940963525325,,,,,,,,,,,,,,,,,,,785280,2022-08-30_17h50.00.728,palt,2022.2.2,51.66486434510096,
10,málna,dominó,,,,,,,,,0,0,0,0,,,,,0,2,2,9,,,,,,510.4628885407001,,,,,,,511.48526016343385,511.48526016343385,511.48526016343385,511.48526016343385,málna,4,4.3688693614676595,515.8795745931566,515.8795745931566,515.8795745931566, ,down,1.4553313162177801,517.3578492412344,517.3578492412344,4,1.814680851995945,,,,,,,,,,,,,,,,,,,,785280,2022-08-30_17h50.00.728,palt,2022.2.2,51.66486434510096,
6,menta,triatlon,,,,,,,,,0,0,0,0,,,,,0,3,3,5,,,,,,519.1966975480318,,,,,,,520.2181495241821,520.2181495241821,520.2181495241821,520.2181495241821,menta,4,3.224756152369082,523.4756261184812,523.4756261184812,523.4756261184812, ,down,1.5869044354185462,525.0935616083443,525.0935616083443,4,1.9582837000489235,,,,,,,,,,,,,,,,,,,,785280,2022-08-30_17h50.00.728,palt,2022.2.2,51.66486434510096,
4,mocsár,ananász,,,,,,,,,0,0,0,0,,,,,0,4,4,3,,,,,,527.0686894934624,,,,,,,528.0786420097575,528.0786420097575,528.0786420097575,528.0786420097575,mocsár,4,6.27265331428498,534.3750998331234,534.3750998331234,534.3750998331234, ,down,1.6638676328584552,536.0604232549667,536.0604232549667,4,2.066103395074606,,,,,,,,,,,,,,,,,,,,785280,2022-08-30_17h50.00.728,palt,2022.2.2,51.66486434510096,
1,bagoly,kirakó,,,,,,,,,0,0,0,0,,,,,0,5,5,0,,,,,,538.1526198554784,,,,,,,539.1621823692694,539.1621823692694,539.1621823692694,539.1621823692694,kirakó,4,10.57542083505541,549.76800540369,549.76800540369,549.76800540369, ,down,3.1993500413373113,552.9934573583305,552.9934573583305,4,1.260377892293036,,,,,,,,,,,,,,,,,,,,785280,2022-08-30_17h50.00.728,palt,2022.2.2,51.66486434510096,
7,csavarhúzó,hering,,,,,,,,,0,0,0,0,,,,,0,6,6,6,,,,,,554.2789820637554,,,,,,,555.2920794757083,555.2920794757083,555.2920794757083,555.2920794757083,csavarhúzó,4,8.368067587725818,563.7098966585472,563.7098966585472,563.7098966585472, hering,down,2.21671290602535,565.9897411428392,565.9897411428392,4,5.795579772442579,,,,,,,,,,,,,,,,,,,,785280,2022-08-30_17h50.00.728,palt,2022.2.2,51.66486434510096,
3,fogó,limonádé,,,,,,,,,0,0,0,0,,,,,0,7,7,2,,,,,,571.8025327119976,,,,,,,572.8107824670151,572.8107824670151,572.8107824670151,572.8107824670151,fogó,4,4.999181351624429,577.8523058639839,577.8523058639839,577.8523058639839, ,down,1.4497720766812563,579.3354256805032,579.3354256805032,4,1.3048113761469722,,,,,,,,,,,,,,,,,,,,785280,2022-08-30_17h50.00.728,palt,2022.2.2,51.66486434510096,
8,szalvéta,puska,,,,,,,,,0,0,0,0,,,,,0,8,8,7,,,,,,580.6698819547892,,,,,,,581.6840249700472,581.6840249700472,581.6840249700472,581.6840249700472,szalvéta,4,5.602404994890094,587.3131454940885,587.3131454940885,587.3131454940885, ,down,2.085753400810063,589.4353706948459,589.4353706948459,4,1.0366933876648545,581.6840249700472,,,,,,,,,,,,,,,,,,,785280,2022-08-30_17h50.00.728,palt,2022.2.2,51.66486434510096,
2,kötény,tisztás,,,,,,,,,0,0,0,0,,,,,0,9,9,1,,,,,,590.5052236635238,,,,,,,591.5264119068161,591.5264119068161,591.5264119068161,591.5264119068161,kötény,4,3.5166779486462474,595.0624482175335,595.0624482175335,595.0624482175335, ,down,1.7756958901882172,596.8622649107128,596.8622649107128,4,1.8621046617627144,,,,,,,,,,,,,,,,,,,,785280,2022-08-30_17h50.00.728,palt,2022.2.2,51.66486434510096,
,,,,,,,,,,,0,0,0,0,,,,,,,,,,,,,,,,,,,,,,,,,,,,,,,,,,,,,,,,,,,,,,,,,,,,598.7748102238402,598.7748102238402,4,18.128741015680134,,785280,2022-08-30_17h50.00.728,palt,2022.2.2,51.66486434510096,
6,menta,triatlon,,,,,,,,,1,0,1,0,0,0,0,5,,,,,,,,,,620.9535785643384,621.9517240328714,621.9517240328714,,,,,,,,,,,,,,,,,,,,,,,,,,,616.9345589680597,,,,,,,,,,,,,,785280,2022-08-30_17h50.00.728,palt,2022.2.2,51.66486434510096,
7,csavarhúzó,hering,,,,,,,,,1,0,1,0,0,1,1,6,,,,,,,,,,627.9423148455098,628.9686919199303,628.9686919199303,,,,,,,,,,,,,,,,,,,,,,,,,,,,,,,,,,,,,,,,,785280,2022-08-30_17h50.00.728,palt,2022.2.2,51.66486434510096,
2,kötény,tisztás,,,,,,,,,1,0,1,0,0,2,2,1,,,,,,,,,,634.9504255810753,635.9522272413597,635.9522272413597,,,,,,,,,,,,,,,,,,,,,,,,,,,,,,,,,,,,,,,,,785280,2022-08-30_17h50.00.728,palt,2022.2.2,51.66486434510096,
4,mocsár,ananász,,,,,,,,,1,0,1,0,0,3,3,3,,,,,,,,,,641.9446287332103,642.9542929455638,642.9542929455638,,,,,,,,,,,,,,,,,,,,,,,,,,,,,,,,,,,,,,,,,785280,2022-08-30_17h50.00.728,palt,2022.2.2,51.66486434510096,
1,bagoly,kirakó,,,,,,,,,1,0,1,0,0,4,4,0,,,,,,,,,,648.9361895741895,649.9488347833976,649.9488347833976,,,,,,,,,,,,,,,,,,,,,,649.9488347833976,,,,,,,,,,,,,,,,,,,785280,2022-08-30_17h50.00.728,palt,2022.2.2,51.66486434510096,
8,szalvéta,puska,,,,,,,,,1,0,1,0,0,5,5,7,,,,,,,,,,655.9448881121352,656.9525031037629,656.9525031037629,,,,,,,,,,,,,,,,,,,,,,,,,,,,,,,,,,,,,,,,,785280,2022-08-30_17h50.00.728,palt,2022.2.2,51.66486434510096,
5,karton,hentes,,,,,,,,,1,0,1,0,0,6,6,4,,,,,,,,,,662.9386676736176,663.9425082914531,663.9425082914531,,,,,,,,,,,,,,,,,,,,,,,,,,,,,,,,,,,,,,,,,785280,2022-08-30_17h50.00.728,palt,2022.2.2,51.66486434510096,
3,fogó,limonádé,,,,,,,,,1,0,1,0,0,7,7,2,,,,,,,,,,669.9408226367086,670.9830852951854,670.9830852951854,,,,,,,,,,,,,,,,,,,,,,,,,,,,,,,,,,,,,,,,,785280,2022-08-30_17h50.00.728,palt,2022.2.2,51.66486434510096,
9,szilva,kecske,,,,,,,,,1,0,1,0,0,8,8,8,,,,,,,,,,676.9447307428345,677.9535135636106,677.9535135636106,,,,,,,,,,,,,,,,,,,,,,,,,,,,,,,,,,,,,,,,,785280,2022-08-30_17h50.00.728,palt,2022.2.2,51.66486434510096,
10,málna,dominó,,,,,,,,,1,0,1,0,0,9,9,9,,,,,,,,,,683.9383233897388,684.9461747454479,684.9461747454479,,,,,,,,,,,,,,,,,,,,,,,,,,,,,,,,,,,,,,,,,785280,2022-08-30_17h50.00.728,palt,2022.2.2,51.66486434510096,
6,menta,triatlon,,,,,,,,,1,0,1,0,,,,,0,0,0,5,,,,,,700.7673662863672,,,,,,,701.7697775186971,701.7697775186971,701.7697775186971,701.7697775186971,menta,4,5.82896226644516,707.6447877818719,707.6447877818719,707.6447877818719, triatlon,down,3.608502585440874,711.2873963415623,711.2873963415623,4,2.542105209082365,,,,,,696.7608351521194,690.934569853358,690.934569853358,u,1.838520735502243,692.7922237832099,692.7922237832099,4,3.9516151007264853,,,,,700.7673662863672,785280,2022-08-30_17h50.00.728,palt,2022.2.2,51.66486434510096,
8,szalvéta,puska,,,,,,,,,1,0,1,0,,,,,0,1,1,7,,,,,,713.8535626400262,,,,,,,714.8781420979649,714.8781420979649,714.8781420979649,714.8781420979649,szalvéta,4,10.29856356792152,725.1977064525709,725.1977064525709,725.1977064525709, ,down,1.6069506639614701,726.8453075978905,726.8453075978905,4,1.3659878876060247,,,,,,,,,,,,,,,,,,,,785280,2022-08-30_17h50.00.728,palt,2022.2.2,51.66486434510096,
3,fogó,limonádé,,,,,,,,,1,0,1,0,,,,,0,2,2,2,,,,,,728.2294213287532,,,,,,,729.2319087581709,729.2319087581709,729.2319087581709,729.2319087581709,fogó,4,12.784270647913218,742.0485294377431,742.0485294377431,742.0485294377431, ,down,1.8755074813961983,743.9445186369121,743.9445186369121,4,1.1776010524481535,729.2319087581709,,,,,,,,,,,,,,,,,,,785280,2022-08-30_17h50.00.728,palt,2022.2.2,51.66486434510096,
1,bagoly,kirakó,,,,,,,,,1,0,1,0,,,,,0,3,3,0,,,,,,745.1542262034491,,,,,,,746.1641311356798,746.1641311356798,746.1641311356798,746.1641311356798,kirakó,4,6.392197639681399,752.5823485832661,752.5823485832661,752.5823485832661, ,down,2.3656656853854656,754.9699039114639,754.9699039114639,4,1.2030992228537798,,,,,,,,,,,,,,,,,,,,785280,2022-08-30_17h50.00.728,palt,2022.2.2,51.66486434510096,
5,karton,hentes,,,,,,,,,1,0,1,0,,,,,0,4,4,4,,,,,,756.2000968474895,,,,,,,757.2079475820065,757.2079475820065,757.2079475820065,757.2079475820065,hentes,4,4.520565839484334,761.7619158988819,761.7619158988819,761.7619158988819, ,down,1.6827351469546556,763.4747898215428,763.4747898215428,4,0.8804960250854492,757.2079475820065,,,,,,,,,,,,,,,,,,,785280,2022-08-30_17h50.00.728,palt,2022.2.2,51.66486434510096,
2,kötény,tisztás,,,,,,,,,1,0,1,0,,,,,0,5,5,1,,,,,,764.374438633211,,,,,,,765.3882594462484,765.3882594462484,765.3882594462484,765.3882594462484,kötény,4,4.127889169380069,769.5420101210475,769.5420101210475,769.5420101210475, ,down,2.1100734788924456,771.6740099424496,771.6740099424496,4,0.656742786988616,,,,,,,,,,,,,,,,,,,,785280,2022-08-30_17h50.00.728,palt,2022.2.2,51.66486434510096,
10,málna,dominó,,,,,,,,,1,0,1,0,,,,,0,6,6,9,,,,,,772.352271030657,,,,,,,773.3776986021549,773.3776986021549,773.3776986021549,773.3776986021549,málna,4,1.9929901463910937,775.3948409641162,775.3948409641162,775.3948409641162, ,down,1.6977707501500845,777.1240750672296,777.1240750672296,4,0.8442407660186291,,,,,,,,,,,,,,,,,,,,785280,2022-08-30_17h50.00.728,palt,2022.2.2,51.66486434510096,
7,csavarhúzó,hering,,,,,,,,,1,0,1,0,,,,,0,7,7,6,,,,,,777.9992122212425,,,,,,,779.0271965758875,779.0271965758875,779.0271965758875,779.0271965758875,csavarhúzó,4,4.0114925391972065,783.0604730155319,783.0604730155319,783.0604730155319, hering,down,2.1437651123851538,785.2502441396937,785.2502441396937,4,1.269160402007401,,,,,,,,,,,,,,,,,,,,785280,2022-08-30_17h50.00.728,palt,2022.2.2,51.66486434510096,
9,szilva,kecske,,,,,,,,,1,0,1,0,,,,,0,8,8,8,,,,,,786.5434942441061,,,,,,,787.5571458693594,787.5571458693594,787.5571458693594,787.5571458693594,kecske,4,10.635151479393244,798.2168908817694,798.2168908817694,798.2168908817694, ,down,2.586563262157142,800.8457143940032,800.8457143940032,4,1.0489887138828635,,,,,,,,,,,,,,,,,,,,785280,2022-08-30_17h50.00.728,palt,2022.2.2,51.66486434510096,
4,mocsár,ananász,,,,,,,,,1,0,1,0,,,,,0,9,9,3,,,,,,801.9159937528893,,,,,,,802.9241051105782,802.9241051105782,802.9241051105782,802.9241051105782,mocsár,4,2.3311389992013574,805.3033148925751,805.3033148925751,805.3033148925751, ,down,1.2600463591516018,806.5935025168583,806.5935025168583,4,1.0330465259030461,802.9241051105782,,,,,,,,,,,,,,,,,,,785280,2022-08-30_17h50.00.728,palt,2022.2.2,51.66486434510096,
,,,,,,,,,,,1,0,1,0,,,,,,,,,,,,,,,,,,,,,,,,,,,,,,,,,,,,,,,,,,,,,,,,,,,,807.6767561286688,807.6767561286688,4,62.14880683738738,,785280,2022-08-30_17h50.00.728,palt,2022.2.2,51.66486434510096,
8,szalvéta,puska,,,,,,,,,2,0,2,0,0,0,0,7,,,,,,,,,,873.872152114287,874.8633615188301,874.8633615188301,,,,,,,,,,,,,,,,,,,,,,,,,,,869.8562534675002,,,,,,,,,,,,,873.872152114287,785280,2022-08-30_17h50.00.728,palt,2022.2.2,51.66486434510096,
2,kötény,tisztás,,,,,,,,,2,0,2,0,0,1,1,1,,,,,,,,,,880.8660448817536,881.8723209910095,881.8723209910095,,,,,,,,,,,,,,,,,,,,,,,,,,,,,,,,,,,,,,,,,785280,2022-08-30_17h50.00.728,palt,2022.2.2,51.66486434510096,
10,málna,dominó,,,,,,,,,2,0,2,0,0,2,2,9,,,,,,,,,,887.8681161841378,888.8745813854039,888.8745813854039,,,,,,,,,,,,,,,,,,,,,,,,,,,,,,,,,,,,,,,,,785280,2022-08-30_17h50.00.728,palt,2022.2.2,51.66486434510096,
3,fogó,limonádé,,,,,,,,,2,0,2,0,0,3,3,2,,,,,,,,,,894.864081188105,895.8726481692865,895.8726481692865,,,,,,,,,,,,,,,,,,,,,,,,,,,,,,,,,,,,,,,,,785280,2022-08-30_17h50.00.728,palt,2022.2.2,51.66486434510096,
1,bagoly,kirakó,,,,,,,,,2,0,2,0,0,4,4,0,,,,,,,,,,901.8581876168028,902.8800065806136,902.8800065806136,,,,,,,,,,,,,,,,,,,,,,,,,,,,,,,,,,,,,,,,,785280,2022-08-30_17h50.00.728,palt,2022.2.2,51.66486434510096,
7,csavarhúzó,hering,,,,,,,,,2,0,2,0,0,5,5,6,,,,,,,,,,908.8675974262878,909.8832914307714,909.8832914307714,,,,,,,,,,,,,,,,,,,,,,,,,,,,,,,,,,,,,,,,,785280,2022-08-30_17h50.00.728,palt,2022.2.2,51.66486434510096,
6,menta,triatlon,,,,,,,,,2,0,2,0,0,6,6,5,,,,,,,,,,915.8573267506436,916.8646179847419,916.8646179847419,,,,,,,,,,,,,,,,,,,,,,,,,,,,,,,,,,,,,,,,,785280,2022-08-30_17h50.00.728,palt,2022.2.2,51.66486434510096,
9,szilva,kecske,,,,,,,,,2,0,2,0,0,7,7,8,,,,,,,,,,922.8670786675066,923.8726083608344,923.8726083608344,,,,,,,,,,,,,,,,,,,,,,,,,,,,,,,,,,,,,,,,,785280,2022-08-30_17h50.00.728,palt,2022.2.2,51.66486434510096,
5,karton,hentes,,,,,,,,,2,0,2,0,0,8,8,4,,,,,,,,,,929.8702770574018,930.8612880390137,930.8612880390137,,,,,,,,,,,,,,,,,,,,,,,,,,,,,,,,,,,,,,,,,785280,2022-08-30_17h50.00.728,palt,2022.2.2,51.66486434510096,
4,mocsár,ananász,,,,,,,,,2,0,2,0,0,9,9,3,,,,,,,,,,936.8731078375131,937.8733252305537,937.8733252305537,,,,,,,,,,,,,,,,,,,,,,,,,,,,,,,,,,,,,,,,,785280,2022-08-30_17h50.00.728,palt,2022.2.2,51.66486434510096,
2,kötény,tisztás,,,,,,,,,2,0,2,0,,,,,0,0,0,1,,,,,,950.6545409420505,,,,,,,951.6723351730034,951.6723351730034,951.6723351730034,951.6723351730034,kötény,4,3.2048685383051634,954.912430241704,954.912430241704,954.912430241704, ,down,0.9612740259617567,955.9053271664307,955.9053271664307,4,1.1482747048139572,,,,,,946.6491617755964,943.8585726423189,943.8585726423189,u,1.6473709205165505,945.5303050847724,945.5303050847724,4,1.0929370261728764,,,,,950.6545409420505,785280,2022-08-30_17h50.00.728,palt,2022.2.2,51.66486434510096,
8,szalvéta,puska,,,,,,,,,2,0,2,0,,,,,0,1,1,7,,,,,,957.0757316118106,,,,,,,958.0845589060336,958.0845589060336,958.0845589060336,958.0845589060336,szalvéta,4,5.153308033011854,963.2603997429833,963.2603997429833,963.2603997429833, ,down,2.1332288375124335,965.4185782158747,965.4185782158747,4,0.8767384449020028,958.0845589060336,,,,,,,,,,,,,,,,,,,785280,2022-08-30_17h50.00.728,palt,2022.2.2,51.66486434510096,
6,menta,triatlon,,,,,,,,,2,0,2,0,,,,,0,2,2,5,,,,,,966.3133952319622,,,,,,,967.3230199469253,967.3230199469253,967.3230199469253,967.3230199469253,menta,4,6.080809021368623,973.4331230511889,973.4331230511889,973.4331230511889, triatlon,down,2.8727031368762255,976.3455644892529,976.3455644892529,4,1.2110575651749969,,,,,,,,,,,,,,,,,,,,785280,2022-08-30_17h50.00.728,palt,2022.2.2,51.66486434510096,
1,bagoly,kirakó,,,,,,,,,2,0,2,0,,,,,0,3,3,0,,,,,,977.5746561512351,,,,,,,978.5852390769869,978.5852390769869,978.5852390769869,978.5852390769869,kirakó,4,3.7254238836467266,982.3438555086032,982.3438555086032,982.3438555086032,bagoly,down,2.4093875847756863,984.7715611401945,984.7715611401945,4,2.0801496878266335,,,,,,,,,,,,,,,,,,,,785280,2022-08-30_17h50.00.728,palt,2022.2.2,51.66486434510096,
4,mocsár,ananász,,,,,,,,,2,0,2,0,,,,,0,4,4,3,,,,,,986.881337066181,,,,,,,987.8887542579323,987.8887542579323,987.8887542579323,987.8887542579323,mocsár,4,12.635623898357153,1000.5650899056345,1000.5650899056345,1000.5650899056345, ,down,1.5002748491242528,1002.0968775581568,1002.0968775581568,4,1.0722149824723601,987.8887542579323,,,,,,,,,,,,,,,,,,,785280,2022-08-30_17h50.00.728,palt,2022.2.2,51.66486434510096,
7,csavarhúzó,hering,,,,,,,,,2,0,2,0,,,,,0,5,5,6,,,,,,1003.2002501739189,,,,,,,1004.2148363729939,1004.2148363729939,1004.2148363729939,1004.2148363729939,csavarhúzó,4,4.303554599173367,1008.5524605577812,1008.5524605577812,1008.5524605577812,hering,down,3.305040898732841,1011.8944270145148,1011.8944270145148,4,0.9198075430467725,,,,,,,,,,,,,,,,,,,,785280,2022-08-30_17h50.00.728,palt,2022.2.2,51.66486434510096,
3,fogó,limonádé,,,,,,,,,2,0,2,0,,,,,0,6,6,2,,,,,,1012.8467276534066,,,,,,,1013.8730618078262,1013.8730618078262,1013.8730618078262,1013.8730618078262,fogó,4,7.586726229637861,1021.4948923420161,1021.4948923420161,1021.4948923420161, ,down,5.322399408556521,1026.8796458132565,1026.8796458132565,4,1.5358278565108776,,,,,,,,,,,,,,,,,,,,785280,2022-08-30_17h50.00.728,palt,2022.2.2,51.66486434510096,
10,málna,dominó,,,,,,,,,2,0,2,0,,,,,0,7,7,9,,,,,,1028.435565696098,,,,,,,1029.4548288099468,1029.4548288099468,1029.4548288099468,1029.4548288099468,málna,4,10.174495654180646,1039.6568965045735,1039.6568965045735,1039.6568965045735, ,down,2.32831443939358,1042.004683134146,1042.004683134146,4,1.0299501465633512,,,,,,,,,,,,,,,,,,,,785280,2022-08-30_17h50.00.728,palt,2022.2.2,51.66486434510096,
9,szilva,kecske,,,,,,,,,2,0,2,0,,,,,0,8,8,8,,,,,,1043.064243035391,,,,,,,1044.0776374582201,1044.0776374582201,1044.0776374582201,1044.0776374582201,kecske,4,4.545737141743302,1048.6666636606678,1048.6666636606678,1048.6666636606678, ,down,1.6222904324531555,1050.3206444801763,1050.3206444801763,4,0.8548351982608438,1044.0776374582201,,,,,,,,,,,,,,,,,,,785280,2022-08-30_17h50.00.728,palt,2022.2.2,51.66486434510096,
5,karton,hentes,,,,,,,,,2,0,2,0,,,,,0,9,9,4,,,,,,1051.1994316047058,,,,,,,1052.2110265446827,1052.2110265446827,1052.2110265446827,1052.2110265446827,hentes,4,4.887138499878347,1057.1427171016112,1057.1427171016112,1057.1427171016112, karton,down,2.1856349697336555,1059.3538985271007,1059.3538985271007,4,5.602422411553562,,,,,,,,,,,,,,,,,,,,785280,2022-08-30_17h50.00.728,palt,2022.2.2,51.66486434510096,
,,,,,,,,,,,2,0,2,0,,,,,,,,,,,,,,,,,,,,,,,,,,,,,,,,,,,,,,,,,,,,,,,,,,,,1064.990721435286,1064.990721435286,4,14.822953310795128,,785280,2022-08-30_17h50.00.728,palt,2022.2.2,51.66486434510096,
3,fogó,limonádé,,,,,,,,,3,0,3,0,0,0,0,2,,,,,,,,,,1083.8611766994,1084.8693116931245,1084.8693116931245,,,,,,,,,,,,,,,,,,,,,,,,,,,1079.8451315686107,,,,,,,,,,,,,1083.8611766994,785280,2022-08-30_17h50.00.728,palt,2022.2.2,51.66486434510096,
7,csavarhúzó,hering,,,,,,,,,3,0,3,0,0,1,1,6,,,,,,,,,,1090.8496719505638,1091.8735982943326,1091.8735982943326,,,,,,,,,,,,,,,,,,,,,,,,,,,,,,,,,,,,,,,,,785280,2022-08-30_17h50.00.728,palt,2022.2.2,51.66486434510096,
6,menta,triatlon,,,,,,,,,3,0,3,0,0,2,2,5,,,,,,,,,,1097.8546343687922,1098.8743080105633,1098.8743080105633,,,,,,,,,,,,,,,,,,,,,,,,,,,,,,,,,,,,,,,,,785280,2022-08-30_17h50.00.728,palt,2022.2.2,51.66486434510096,
10,málna,dominó,,,,,,,,,3,0,3,0,0,3,3,9,,,,,,,,,,1104.856174471788,1105.872620179318,1105.872620179318,,,,,,,,,,,,,,,,,,,,,,,,,,,,,,,,,,,,,,,,,785280,2022-08-30_17h50.00.728,palt,2022.2.2,51.66486434510096,
2,kötény,tisztás,,,,,,,,,3,0,3,0,0,4,4,1,,,,,,,,,,1111.849435585551,1112.8691515251994,1112.8691515251994,,,,,,,,,,,,,,,,,,,,,,,,,,,,,,,,,,,,,,,,,785280,2022-08-30_17h50.00.728,palt,2022.2.2,51.66486434510096,
4,mocsár,ananász,,,,,,,,,3,0,3,0,0,5,5,3,,,,,,,,,,1118.8514872947708,1119.8599892761558,1119.8599892761558,,,,,,,,,,,,,,,,,,,,,,,,,,,,,,,,,,,,,,,,,785280,2022-08-30_17h50.00.728,palt,2022.2.2,51.66486434510096,
8,szalvéta,puska,,,,,,,,,3,0,3,0,0,6,6,7,,,,,,,,,,1125.8560360744596,1126.8775969035923,1126.8775969035923,,,,,,,,,,,,,,,,,,,,,,,,,,,,,,,,,,,,,,,,,785280,2022-08-30_17h50.00.728,palt,2022.2.2,51.66486434510096,
9,szilva,kecske,,,,,,,,,3,0,3,0,0,7,7,8,,,,,,,,,,1132.860382388346,1133.8731675501913,1133.8731675501913,,,,,,,,,,,,,,,,,,,,,,,,,,,,,,,,,,,,,,,,,785280,2022-08-30_17h50.00.728,palt,2022.2.2,51.66486434510096,
1,bagoly,kirakó,,,,,,,,,3,0,3,0,0,8,8,0,,,,,,,,,,1139.861100813374,1140.8535293629393,1140.8535293629393,,,,,,,,,,,,,,,,,,,,,,,,,,,,,,,,,,,,,,,,,785280,2022-08-30_17h50.00.728,palt,2022.2.2,51.66486434510096,
5,karton,hentes,,,,,,,,,3,0,3,0,0,9,9,4,,,,,,,,,,1146.864372911863,1147.873458652757,1147.873458652757,,,,,,,,,,,,,,,,,,,,,,,,,,,,,,,,,,,,,,,,,785280,2022-08-30_17h50.00.728,palt,2022.2.2,51.66486434510096,
7,csavarhúzó,hering,,,,,,,,,3,0,3,0,,,,,0,0,0,6,,,,,,1160.9303180845454,,,,,,,1161.948242938146,1161.948242938146,1161.948242938146,1161.948242938146,csavarhúzó,4,4.857389493845403,1166.835414795205,1166.835414795205,1166.835414795205, hering,down,2.251900790259242,1169.1156673198566,1169.1156673198566,4,1.7340586660429835,,,,,,1156.9167622495443,1153.855433032848,1153.855433032848,u,1.6483611650764942,1155.531589852646,1155.531589852646,4,1.357924424111843,,,,,,785280,2022-08-30_17h50.00.728,palt,2022.2.2,51.66486434510096,
8,szalvéta,puska,,,,,,,,,3,0,3,0,,,,,0,1,1,7,,,,,,1170.8779800636694,,,,,,,1171.9069736339152,1171.9069736339152,1171.9069736339152,1171.9069736339152,szalvéta,4,7.658975501544774,1179.6028501251712,1179.6028501251712,1179.6028501251712, puska,down,2.5565489679574966,1182.1859037596732,1182.1859037596732,4,1.6915045930072665,,,,,,,,,,,,,,,,,,,,785280,2022-08-30_17h50.00.728,palt,2022.2.2,51.66486434510096,
3,fogó,limonádé,,,,,,,,,3,0,3,0,,,,,0,2,2,2,,,,,,1183.894406799227,,,,,,,1184.9028061488643,1184.9028061488643,1184.9028061488643,1184.9028061488643,fogó,None,,1199.903033494018,1199.903033494018,1199.903033494018, lepke,down,9.231834658421576,1209.177071178332,1209.177071178332,4,3.1980276415124536,,,,,,,,,,,,,,,,,,,,785280,2022-08-30_17h50.00.728,palt,2022.2.2,51.66486434510096,
1,bagoly,kirakó,,,,,,,,,3,0,3,0,,,,,0,3,3,0,,,,,,1212.3938068673015,,,,,,,1213.4053476927802,1213.4053476927802,1213.4053476927802,1213.4053476927802,kirakó,4,4.9079983197152615,1218.3420299012214,1218.3420299012214,1218.3420299012214, ,down,2.2652410995215178,1220.635572662577,1220.635572662577,4,4.635107005946338,,,,,,,,,,,,,,,,,,,,785280,2022-08-30_17h50.00.728,palt,2022.2.2,51.66486434510096,
5,karton,hentes,,,,,,,,,3,0,3,0,,,,,0,4,4,4,,,,,,1225.2964864363894,,,,,,,1226.3094289675355,1226.3094289675355,1226.3094289675355,1226.3094289675355,hentes,4,5.008775587193668,1231.3383612697944,1231.3383612697944,1231.3383612697944, karton,down,2.931903204880655,1234.3135914765298,1234.3135914765298,4,2.158152579329908,,,,,,,,,,,,,,,,,,,,785280,2022-08-30_17h50.00.728,palt,2022.2.2,51.66486434510096,
4,mocsár,ananász,,,,,,,,,3,0,3,0,,,,,0,5,5,3,,,,,,1236.4888168321922,,,,,,,1237.4978543668985,1237.4978543668985,1237.4978543668985,1237.4978543668985,mocsár,4,7.285732688382268,1244.818074323237,1244.818074323237,1244.818074323237, ananász,down,2.924341395497322,1247.7681123903021,1247.7681123903021,4,1.3760358821600676,1237.4978543668985,,,,,,,,,,,,,,,,,,,785280,2022-08-30_17h50.00.728,palt,2022.2.2,51.66486434510096,
2,kötény,tisztás,,,,,,,,,3,0,3,0,,,,,0,6,6,1,,,,,,1249.1722922539338,,,,,,,1250.181764264591,1250.181764264591,1250.181764264591,1250.181764264591,kötény,4,6.885180403478444,1257.0953750861809,1257.0953750861809,1257.0953750861809, ,down,1.4786655036732554,1258.612463021651,1258.612463021651,4,2.903120806440711,,,,,,,,,,,,,,,,,,,,785280,2022-08-30_17h50.00.728,palt,2022.2.2,51.66486434510096,
6,menta,triatlon,,,,,,,,,3,0,3,0,,,,,0,7,7,5,,,,,,1261.5377260083333,,,,,,,1262.546212750487,1262.546212750487,1262.546212750487,1262.546212750487,menta,4,8.112764928489923,1270.6940017445013,1270.6940017445013,1270.6940017445013, ,down,1.672224685549736,1272.396543723531,1272.396543723531,4,3.89255063328892,,,,,,,,,,,,,,,,,,,,785280,2022-08-30_17h50.00.728,palt,2022.2.2,51.66486434510096,
10,málna,dominó,,,,,,,,,3,0,3,0,,,,,0,8,8,9,,,,,,1276.3125169500709,,,,,,,1277.318731168285,1277.318731168285,1277.318731168285,1277.318731168285,málna,4,10.014802579768002,1287.376191465184,1287.376191465184,1287.376191465184, ,down,2.07800374366343,1289.4844845132902,1289.4844845132902,4,3.588479682803154,1277.318731168285,,,,,,,,,,,,,,,,,,,785280,2022-08-30_17h50.00.728,palt,2022.2.2,51.66486434510096,
9,szilva,kecske,,,,,,,,,3,0,3,0,,,,,0,9,9,8,,,,,,1293.0977440215647,,,,,,,1294.1123678535223,1294.1123678535223,1294.1123678535223,1294.1123678535223,kecske,4,14.838378294371068,1308.993300922215,1308.993300922215,1308.993300922215, ,down,4.571990435011685,1313.5943061569706,1313.5943061569706,4,4.616305424831808,1294.1123678535223,,,,,,,,,,,,,,,,,,,785280,2022-08-30_17h50.00.728,palt,2022.2.2,51.66486434510096,
,,,,,,,,,,,,,,,,,,,,,,,,,,,,,,,,,,,,,,,,,,,,,,,,,,,,,,,,,,,,,,,,,,1318.2583427466452,1318.2583427466452,,,,,,,,,
