itemno,wordA,wordB,enc_gyak.thisRepN,enc_gyak.thisTrialN,enc_gyak.thisN,enc_gyak.thisIndex,rec_gyak.thisRepN,rec_gyak.thisTrialN,rec_gyak.thisN,rec_gyak.thisIndex,repeat_task.thisRepN,repeat_task.thisTrialN,repeat_task.thisN,repeat_task.thisIndex,enc_loop.thisRepN,enc_loop.thisTrialN,enc_loop.thisN,enc_loop.thisIndex,test_loop.thisRepN,test_loop.thisTrialN,test_loop.thisN,test_loop.thisIndex,int.started,int.stopped,int_key.keys,int_key.rt,int_key.started,int_key.stopped,prepare_gyak_text.started,prepare_gyak_text.stopped,fix.started,fix.stopped,word1.started,word1.stopped,word2.started,word2.stopped,gykrec_inst.started,gykrec_inst.stopped,gyakrec_inst.keys,gyakrec_inst.rt,gyakrec_inst.started,gyakrec_inst.stopped,cueword,cueword1.started,cueword1.stopped,cue_resp.keys,cue_resp.rt,cue_resp.started,cue_resp.stopped,cue_cont_text.started,cue_cont_text.stopped,cue_space.started,cue_space.stopped,test_ansbox.text,test_ansbox.started,test_ansbox.stopped,ans_text.started,ans_text.stopped,ans_continue.keys,ans_continue.rt,ans_continue.started,ans_continue.stopped,feedback_text.started,feedback_text.stopped,feedback_cont.keys,feedback_cont.rt,feedback_cont.started,feedback_cont.stopped,main_prep.started,main_prep.stopped,main_prep_resp.keys,main_prep_resp.rt,main_prep_resp.started,main_prep_resp.stopped,preparation.started,preparation.stopped,break_text.started,break_text.stopped,key_resp.keys,key_resp.rt,key_resp.started,key_resp.stopped,test_instruction.started,test_instruction.stopped,test_i_key.keys,test_i_key.rt,test_i_key.started,test_i_key.stopped,rep_routine.keys,rep_routine.rt,rep_routine.started,rep_routine.stopped,encrep_textbox.started,encrep_textbox.stopped,Résztvevő kódja,date,expName,psychopyVersion,frameRate,
,,,,,,,,,,,,,,,,,,,,,,,12.809053152799606,None,4,97.48144161514938,12.809053152799606,None,,,,,,,,,,,,,,,,,,,,,,,,,,,,,,,,,,,,,,,,,,,,,,,,,,,,,,,,,,,,,,,,,,,971163,2022_Jun_13_1552,palt,2021.1.2,59.71056208642388,
2,lepke,szintetizátor,0,0,0,1,,,,,,,,,,,,,,,,,,,,,,,110.33050358807668,None,113.35495710279793,None,114.35838439548388,None,114.35838439548388,None,,,,,,,,,,,,,,,,,,,,,,,,,,,,,,,,,,,,,,,,,,,,,,,,,,,,,,,,,,,971163,2022_Jun_13_1552,palt,2021.1.2,59.71056208642388,
1,sapka,beton,0,1,1,0,,,,,,,,,,,,,,,,,,,,,,,,,120.33689415128902,None,121.35823822207749,None,121.35823822207749,None,,,,,,,,,,,,,,,,,,,,,,,,,,,,,,,,,,,,,,,,,,,,,,,,,,,,,,,,,,,971163,2022_Jun_13_1552,palt,2021.1.2,59.71056208642388,
4,kard,harcsa,0,2,2,3,,,,,,,,,,,,,,,,,,,,,,,,,127.33928454807028,None,128.35588390240446,None,128.35588390240446,None,,,,,,,,,,,,,,,,,,,,,,,,,,,,,,,,,,,,,,,,,,,,,,,,,,,,,,,,,,,971163,2022_Jun_13_1552,palt,2021.1.2,59.71056208642388,
3,majoránna,szikla,0,3,3,2,,,,,,,,,,,,,,,,,,,,,,,,,134.34095527557656,None,135.35995435668156,None,135.35995435668156,None,,,,,,,,,,,,,,,,,,,,,,,,,,,,,,,,,,,,,,,,,,,,,,,,,,,,,,,,,,,971163,2022_Jun_13_1552,palt,2021.1.2,59.71056208642388,
,,,,,,,,,,,,,,,,,,,,,,,,,,,,,,,,,,,,,141.3496587947011,None,4,10.596420749556273,141.3496587947011,None,,,,,,,,,,,,,,,,,,,,,,,,,,,,,,,,,,,,,,,,,,,,,,,,,,,,,971163,2022_Jun_13_1552,palt,2021.1.2,59.71056208642388,
2,lepke,szintetizátor,,,,,0,0,0,1,,,,,,,,,,,,,,,,,,,,,151.99822042044252,None,,,,,,,,,,,szintetizátor,153.01116295950487,None,4,5.213681428227574,153.01116295950487,None,153.01116295950487,None,153.01116295950487,None,lepke,158.27690689032897,None,158.27690689032897,None,down,2.541036696638912,158.27690689032897,None,160.88752664532512,None,4,4.011547985486686,160.88752664532512,None,,,,,,,,,,,,,,,,,,,,,,,,,,,971163,2022_Jun_13_1552,palt,2021.1.2,59.71056208642388,
1,sapka,beton,,,,,0,1,1,0,,,,,,,,,,,,,,,,,,,,,164.92552200891078,None,,,,,,,,,,,beton,165.942350264173,None,4,13.075302469544113,165.942350264173,None,165.942350264173,None,165.942350264173,None, ,179.0614832029678,None,179.0614832029678,None,down,5.212109912186861,179.0614832029678,None,184.32047207048163,None,4,1.776236048899591,184.32047207048163,None,,,,,,,,,,,,,,,,,,,,,,,,,,,971163,2022_Jun_13_1552,palt,2021.1.2,59.71056208642388,
4,kard,harcsa,,,,,0,2,2,3,,,,,,,,,,,,,,,,,,,,,186.1234602839686,None,,,,,,,,,,,kard,187.14320764737204,None,4,2.9064672575332224,187.14320764737204,None,187.14320764737204,None,187.14320764737204,None, harcsa,190.08710641320795,None,190.08710641320795,None,down,2.7946302224881947,190.08710641320795,None,192.9147574491799,None,4,3.4277332657948136,192.9147574491799,None,,,,,,,,,,,,,,,,,,,,,,,,,,,971163,2022_Jun_13_1552,palt,2021.1.2,59.71056208642388,
3,majoránna,szikla,,,,,0,3,3,2,,,,,,,,,,,,,,,,,,,,,196.38500562589616,None,,,,,,,,,,,majoránna,197.405355097726,None,4,2.560466832946986,197.405355097726,None,197.405355097726,None,197.405355097726,None, szikla,200.01091384282336,None,200.01091384282336,None,down,2.998492862097919,200.01091384282336,None,203.05357306124642,None,4,1.8028672318905592,203.05357306124642,None,,,,,,,,,,,,,,,,,,,,,,,,,,,971163,2022_Jun_13_1552,palt,2021.1.2,59.71056208642388,
,,,,,,,,,,,,,,,,,,,,,,,,,,,,,,,,,,,,,,,,,,,,,,,,,,,,,,,,,,,,,,,,,,,,,204.89760263683274,None,4,25.20265437895432,204.89760263683274,None,,,,,,,,,,,,,,,,,,,,,971163,2022_Jun_13_1552,palt,2021.1.2,59.71056208642388,
6,menta,triatlon,,,,,,,,,0,0,0,0,0,0,0,5,,,,,,,,,,,,,234.17762581305578,None,235.1683690128848,None,235.1683690128848,None,,,,,,,,,,,,,,,,,,,,,,,,,,,,,,,,,,,,,,,230.1404415545985,None,,,,,,,,,,,,,,,,,,,971163,2022_Jun_13_1552,palt,2021.1.2,59.71056208642388,
8,szalvéta,puska,,,,,,,,,0,0,0,0,0,1,1,7,,,,,,,,,,,,,241.13877642527223,None,242.17121161334217,None,242.17121161334217,None,,,,,,,,,,,,,,,,,,,,,,,,,,,,,,,,,,,,,,,,,,,,,,,,,,,,,,,,,,,971163,2022_Jun_13_1552,palt,2021.1.2,59.71056208642388,
9,szilva,kecske,,,,,,,,,0,0,0,0,0,2,2,8,,,,,,,,,,,,,248.13991657551378,None,249.15777177456766,None,249.15777177456766,None,,,,,,,,,,,,,,,,,,,,,,,,,,,,,,,,,,,,,,,,,,,,,,,,,,,,,,,,,,,971163,2022_Jun_13_1552,palt,2021.1.2,59.71056208642388,
3,fogó,limonádé,,,,,,,,,0,0,0,0,0,3,3,2,,,,,,,,,,,,,255.1389406369999,None,256.1501717069186,None,256.1501717069186,None,,,,,,,,,,,,,,,,,,,,,,,,,,,,,,,,,,,,,,,,,,,,,,,,,,,,,,,,,,,971163,2022_Jun_13_1552,palt,2021.1.2,59.71056208642388,
1,bagoly,kirakó,,,,,,,,,0,0,0,0,0,4,4,0,,,,,,,,,,,,,262.1442731558345,None,263.17249638121575,None,263.17249638121575,None,,,,,,,,,,,,,,,,,,,,,,,,,,,,,,,,,,,,,,,,,,,,,,,,,,,,,,,,,,,971163,2022_Jun_13_1552,palt,2021.1.2,59.71056208642388,
5,karton,hentes,,,,,,,,,0,0,0,0,0,5,5,4,,,,,,,,,,,,,269.1378601999022,None,270.16684134863317,None,270.16684134863317,None,,,,,,,,,,,,,,,,,,,,,,,,,,,,,,,,,,,,,,,,,,,,,,,,,,,,,,,,,,,971163,2022_Jun_13_1552,palt,2021.1.2,59.71056208642388,
7,csavarhúzó,hering,,,,,,,,,0,0,0,0,0,6,6,6,,,,,,,,,,,,,276.1393757350743,None,277.158556133043,None,277.158556133043,None,,,,,,,,,,,,,,,,,,,,,,,,,,,,,,,,,,,,,,,,,,,,,,,,,,,,,,,,,,,971163,2022_Jun_13_1552,palt,2021.1.2,59.71056208642388,
10,málna,dominó,,,,,,,,,0,0,0,0,0,7,7,9,,,,,,,,,,,,,283.15389632154256,None,284.15588427567855,None,284.15588427567855,None,,,,,,,,,,,,,,,,,,,,,,,,,,,,,,,,,,,,,,,,,,,,,,,,,,,,,,,,,,,971163,2022_Jun_13_1552,palt,2021.1.2,59.71056208642388,
4,mocsár,ananász,,,,,,,,,0,0,0,0,0,8,8,3,,,,,,,,,,,,,290.1374285230413,None,291.1675165439956,None,291.1675165439956,None,,,,,,,,,,,,,,,,,,,,,,,,,,,,,,,,,,,,,,,,,,,,,,,,,,,,,,,,,,,971163,2022_Jun_13_1552,palt,2021.1.2,59.71056208642388,
2,kötény,tisztás,,,,,,,,,0,0,0,0,0,9,9,1,,,,,,,,,,,,,297.15337134245783,None,298.16917389817536,None,298.16917389817536,None,,,,,,,,,,,,,,,,,,,,,,,,,,,,,,,,,,,,,,,,,,,,,,,,,,,,,,,,,,,971163,2022_Jun_13_1552,palt,2021.1.2,59.71056208642388,
7,csavarhúzó,hering,,,,,,,,,0,0,0,0,,,,,0,0,0,6,,,,,,,,,313.8646001731977,None,,,,,,,,,,,csavarhúzó,314.86633496778086,None,None,,314.86633496778086,None,314.86633496778086,None,314.86633496778086,None, ,329.85465262737125,None,329.85465262737125,None,down,2.7854085662402213,329.85465262737125,None,332.68214536085725,None,4,5.447911684401333,332.68214536085725,None,,,,,,,309.84731473820284,None,304.15162161923945,None,u,1.6888839406892657,304.15162161923945,None,305.8955303998664,None,4,3.9227724000811577,305.8955303998664,None,,,,,,,971163,2022_Jun_13_1552,palt,2021.1.2,59.71056208642388,
8,szalvéta,puska,,,,,,,,,0,0,0,0,,,,,0,1,1,7,,,,,,,,,338.15655791573226,None,,,,,,,,,,,puska,339.1923749893904,None,4,4.150470895227045,339.1923749893904,None,339.1923749893904,None,339.1923749893904,None, szalvéta,343.38715996872634,None,343.38715996872634,None,down,3.6047327117994428,343.38715996872634,None,347.0300985951908,None,4,1.523910497315228,347.0300985951908,None,,,,,,,,,,,,,,,,,,,,,,,,,,,971163,2022_Jun_13_1552,palt,2021.1.2,59.71056208642388,
2,kötény,tisztás,,,,,,,,,0,0,0,0,,,,,0,2,2,1,,,,,,,,,348.58387350011617,None,,,,,,,,,,,tisztás,349.60270339343697,None,4,11.5941221001558,349.60270339343697,None,349.60270339343697,None,349.60270339343697,None, ,361.2217377428897,None,361.2217377428897,None,down,1.7381371203809977,361.2217377428897,None,362.99213339947164,None,4,11.138539127539843,362.99213339947164,None,,,,,,,,,,,,,,,,,,,,,,,,,,,971163,2022_Jun_13_1552,palt,2021.1.2,59.71056208642388,
6,menta,triatlon,,,,,,,,,0,0,0,0,,,,,0,3,3,5,,,,,,,,,374.1572402645834,None,,,,,,,,,,,menta,375.1920139105059,None,None,,375.1920139105059,None,375.1920139105059,None,375.1920139105059,None, ,390.1780108390376,None,390.1780108390376,None,down,10.189236000180244,390.1780108390376,None,400.38736772118136,None,4,1.5721880495548248,400.38736772118136,None,,,,,,,,,,,,,,,,,,,,,,,,,,,971163,2022_Jun_13_1552,palt,2021.1.2,59.71056208642388,
3,fogó,limonádé,,,,,,,,,0,0,0,0,,,,,0,4,4,2,,,,,,,,,401.9907886069268,None,,,,,,,,,,,fogó,403.00566467409953,None,None,,403.00566467409953,None,403.00566467409953,None,403.00566467409953,None, ,418.0197364776395,None,418.0197364776395,None,down,1.6272946842946112,418.0197364776395,None,419.68969006929547,None,4,11.425246146507561,419.68969006929547,None,,,,,,,,,,,,,,,,,,,,,,,,,,,971163,2022_Jun_13_1552,palt,2021.1.2,59.71056208642388,
1,bagoly,kirakó,,,,,,,,,0,0,0,0,,,,,0,5,5,0,,,,,,,,,431.14327171444893,None,,,,,,,,,,,kirakó,432.1661428278312,None,None,,432.1661428278312,None,432.1661428278312,None,432.1661428278312,None, ,447.1663014413789,None,447.1663014413789,None,down,1.712369602639228,447.1663014413789,None,448.9036454949528,None,4,3.93608939088881,448.9036454949528,None,,,,,,,,,,,,,,,,,,,,,,,,,,,971163,2022_Jun_13_1552,palt,2021.1.2,59.71056208642388,
4,mocsár,ananász,,,,,,,,,0,0,0,0,,,,,0,6,6,3,,,,,,,,,452.88557570101693,None,,,,,,,,,,,mocsár,453.9162045628764,None,None,,453.9162045628764,None,453.9162045628764,None,453.9162045628764,None, ,468.8985303696245,None,468.8985303696245,None,down,1.403990400955081,468.8985303696245,None,470.33222998538986,None,4,3.5981148025020957,470.33222998538986,None,,,,,,,,,,,,,,,,,,,,,,,,,,,971163,2022_Jun_13_1552,palt,2021.1.2,59.71056208642388,
9,szilva,kecske,,,,,,,,,0,0,0,0,,,,,0,7,7,8,,,,,,,,,473.96853204257786,None,,,,,,,,,,,kecske,474.9994911933318,None,None,,474.9994911933318,None,474.9994911933318,None,474.9994911933318,None, ,489.97507468797266,None,489.97507468797266,None,down,1.5913855526596308,489.97507468797266,None,491.5881793862209,None,4,2.2950239568017423,491.5881793862209,None,,,,,,,,,,,,,,,,,,,,,,,,,,,971163,2022_Jun_13_1552,palt,2021.1.2,59.71056208642388,
10,málna,dominó,,,,,,,,,0,0,0,0,,,,,0,8,8,9,,,,,,,,,493.9098961050622,None,,,,,,,,,,,málna,494.9406913551502,None,None,,494.9406913551502,None,494.9406913551502,None,494.9406913551502,None, ,509.9294699267484,None,509.9294699267484,None,down,2.484555413015187,509.9294699267484,None,512.4373499006033,None,4,2.6364945699460804,512.4373499006033,None,,,,,,,,,,,,,,,,,,,,,,,,,,,971163,2022_Jun_13_1552,palt,2021.1.2,59.71056208642388,
5,karton,hentes,,,,,,,,,0,0,0,0,,,,,0,9,9,4,,,,,,,,,515.1088759414852,None,,,,,,,,,,,karton,516.1326352893375,None,4,10.290201799944043,516.1326352893375,None,516.1326352893375,None,516.1326352893375,None, ,526.4524365188554,None,526.4524365188554,None,down,2.7772931600920856,526.4524365188554,None,529.2750268555246,None,4,37.30636916588992,529.2750268555246,None,,,,,,,,,,,,,,,,,,,,,,,,,,,971163,2022_Jun_13_1552,palt,2021.1.2,59.71056208642388,
,,,,,,,,,,,0,0,0,0,,,,,,,,,,,,,,,,,,,,,,,,,,,,,,,,,,,,,,,,,,,,,,,,,,,,,,,,,,,,,,,,,,,,,,,,,,,4,30.589848869480193,566.6402166970074,None,566.6402166970074,None,971163,2022_Jun_13_1552,palt,2021.1.2,59.71056208642388,
2,kötény,tisztás,,,,,,,,,1,0,1,0,0,0,0,1,,,,,,,,,,,,,601.2920442027971,None,602.2680907864124,None,602.2680907864124,None,,,,,,,,,,,,,,,,,,,,,,,,,,,,,,,,,,,,,,,597.2613229723647,None,,,,,,,,,,,,,,,,,,,971163,2022_Jun_13_1552,palt,2021.1.2,59.71056208642388,
7,csavarhúzó,hering,,,,,,,,,1,0,1,0,0,1,1,6,,,,,,,,,,,,,608.2599946632981,None,609.2824275679886,None,609.2824275679886,None,,,,,,,,,,,,,,,,,,,,,,,,,,,,,,,,,,,,,,,,,,,,,,,,,,,,,,,,,,,971163,2022_Jun_13_1552,palt,2021.1.2,59.71056208642388,
4,mocsár,ananász,,,,,,,,,1,0,1,0,0,2,2,3,,,,,,,,,,,,,615.2647664370015,None,616.2824763962999,None,616.2824763962999,None,,,,,,,,,,,,,,,,,,,,,,,,,,,,,,,,,,,,,,,,,,,,,,,,,,,,,,,,,,,971163,2022_Jun_13_1552,palt,2021.1.2,59.71056208642388,
3,fogó,limonádé,,,,,,,,,1,0,1,0,0,3,3,2,,,,,,,,,,,,,622.2666657543741,None,623.2842276743613,None,623.2842276743613,None,,,,,,,,,,,,,,,,,,,,,,,,,,,,,,,,,,,,,,,,,,,,,,,,,,,,,,,,,,,971163,2022_Jun_13_1552,palt,2021.1.2,59.71056208642388,
5,karton,hentes,,,,,,,,,1,0,1,0,0,4,4,4,,,,,,,,,,,,,629.2682487778366,None,630.2796086044982,None,630.2796086044982,None,,,,,,,,,,,,,,,,,,,,,,,,,,,,,,,,,,,,,,,,,,,,,,,,,,,,,,,,,,,971163,2022_Jun_13_1552,palt,2021.1.2,59.71056208642388,
9,szilva,kecske,,,,,,,,,1,0,1,0,0,5,5,8,,,,,,,,,,,,,636.2680802121758,None,637.2795834126882,None,637.2795834126882,None,,,,,,,,,,,,,,,,,,,,,,,,,,,,,,,,,,,,,,,,,,,,,,,,,,,,,,,,,,,971163,2022_Jun_13_1552,palt,2021.1.2,59.71056208642388,
10,málna,dominó,,,,,,,,,1,0,1,0,0,6,6,9,,,,,,,,,,,,,643.2678830339573,None,644.2851983257569,None,644.2851983257569,None,,,,,,,,,,,,,,,,,,,,,,,,,,,,,,,,,,,,,,,,,,,,,,,,,,,,,,,,,,,971163,2022_Jun_13_1552,palt,2021.1.2,59.71056208642388,
6,menta,triatlon,,,,,,,,,1,0,1,0,0,7,7,5,,,,,,,,,,,,,650.2683417689987,None,651.2746138386428,None,651.2746138386428,None,,,,,,,,,,,,,,,,,,,,,,,,,,,,,,,,,,,,,,,,,,,,,,,,,,,,,,,,,,,971163,2022_Jun_13_1552,palt,2021.1.2,59.71056208642388,
1,bagoly,kirakó,,,,,,,,,1,0,1,0,0,8,8,0,,,,,,,,,,,,,657.2663071635179,None,658.2822608686984,None,658.2822608686984,None,,,,,,,,,,,,,,,,,,,,,,,,,,,,,,,,,,,,,,,,,,,,,,,,,,,,,,,,,,,971163,2022_Jun_13_1552,palt,2021.1.2,59.71056208642388,
8,szalvéta,puska,,,,,,,,,1,0,1,0,0,9,9,7,,,,,,,,,,,,,664.2663920684718,None,665.2752554453909,None,665.2752554453909,None,,,,,,,,,,,,,,,,,,,,,,,,,,,,,,,,,,,,,,,,,,,,,,,,,,,,,,,,,,,971163,2022_Jun_13_1552,palt,2021.1.2,59.71056208642388,
8,szalvéta,puska,,,,,,,,,1,0,1,0,,,,,0,0,0,7,,,,,,,,,679.0040489947423,None,,,,,,,,,,,puska,679.9821457341313,None,4,3.8409163993783295,679.9821457341313,None,679.9821457341313,None,679.9821457341313,None, szalvéta,683.8564166566357,None,683.8564166566357,None,down,5.291547525208443,683.8564166566357,None,689.2086306815036,None,4,1.7664088630117476,689.2086306815036,None,,,,,,,674.96247736644,None,671.2766005485319,None,u,1.4076263788156211,671.2766005485319,None,672.725300012622,None,4,2.2021583234891295,672.725300012622,None,,,,,,,971163,2022_Jun_13_1552,palt,2021.1.2,59.71056208642388,
5,karton,hentes,,,,,,,,,1,0,1,0,,,,,0,1,1,4,,,,,,,,,691.0016921865754,None,,,,,,,,,,,karton,692.0314275263809,None,4,6.741395536344498,692.0314275263809,None,692.0314275263809,None,692.0314275263809,None, hentes,698.807897452265,None,698.807897452265,None,down,2.4678615126758814,698.807897452265,None,701.3147825160995,None,4,2.111343467608094,701.3147825160995,None,,,,,,,,,,,,,,,,,,,,,,,,,,,971163,2022_Jun_13_1552,palt,2021.1.2,59.71056208642388,
3,fogó,limonádé,,,,,,,,,1,0,1,0,,,,,0,2,2,2,,,,,,,,,703.4577161665075,None,,,,,,,,,,,fogó,704.4855475239456,None,4,4.0274295369163156,704.4855475239456,None,704.4855475239456,None,704.4855475239456,None, limonádé,708.5418670843355,None,708.5418670843355,None,down,3.485779535025358,708.5418670843355,None,712.0631144321524,None,4,1.4917045212350786,712.0631144321524,None,,,,,,,,,,,,,,,,,,,,,,,,,,,971163,2022_Jun_13_1552,palt,2021.1.2,59.71056208642388,
4,mocsár,ananász,,,,,,,,,1,0,1,0,,,,,0,3,3,3,,,,,,,,,713.5837851739489,None,,,,,,,,,,,mocsár,714.6135146045126,None,4,2.5272444882430136,714.6135146045126,None,714.6135146045126,None,714.6135146045126,None, ananász,717.1788076381199,None,717.1788076381199,None,down,2.881431849207729,717.1788076381199,None,720.0953779444098,None,4,1.5982675068080425,720.0953779444098,None,,,,,,,,,,,,,,,,,,,,,,,,,,,971163,2022_Jun_13_1552,palt,2021.1.2,59.71056208642388,
7,csavarhúzó,hering,,,,,,,,,1,0,1,0,,,,,0,4,4,6,,,,,,,,,721.7185393511318,None,,,,,,,,,,,csavarhúzó,722.7486873967573,None,4,7.97995842481032,722.7486873967573,None,722.7486873967573,None,722.7486873967573,None, hering,730.7580698435195,None,730.7580698435195,None,down,2.5813926006667316,730.7580698435195,None,733.3837936334312,None,4,0.6016643205657601,733.3837936334312,None,,,,,,,,,,,,,,,,,,,,,,,,,,,971163,2022_Jun_13_1552,palt,2021.1.2,59.71056208642388,
9,szilva,kecske,,,,,,,,,1,0,1,0,,,,,0,5,5,8,,,,,,,,,734.0087290219963,None,,,,,,,,,,,kecske,735.0356021677144,None,None,,735.0356021677144,None,735.0356021677144,None,735.0356021677144,None, szikla,750.0212349076755,None,750.0212349076755,None,down,3.4461824875324965,750.0212349076755,None,753.4997798074037,None,4,4.387510783970356,753.4997798074037,None,,,,,,,,,,,,,,,,,,,,,,,,,,,971163,2022_Jun_13_1552,palt,2021.1.2,59.71056208642388,
10,málna,dominó,,,,,,,,,1,0,1,0,,,,,0,6,6,9,,,,,,,,,757.919679439161,None,,,,,,,,,,,málna,758.9446342964657,None,4,9.808447623159736,758.9446342964657,None,758.9446342964657,None,758.9446342964657,None, dominó,768.7996769263409,None,768.7996769263409,None,down,2.939531611278653,768.7996769263409,None,771.776399327442,None,4,0.8086880310438573,771.776399327442,None,,,,,,,,,,,,,,,,,,,,,,,,,,,971163,2022_Jun_13_1552,palt,2021.1.2,59.71056208642388,
2,kötény,tisztás,,,,,,,,,1,0,1,0,,,,,0,7,7,1,,,,,,,,,772.6292748632841,None,,,,,,,,,,,tisztás,773.6483523179777,None,None,,773.6483523179777,None,773.6483523179777,None,773.6483523179777,None, ,788.6344780032523,None,788.6344780032523,None,down,1.6643744446337223,788.6344780032523,None,790.3528596744873,None,4,3.5099991727620363,790.3528596744873,None,,,,,,,,,,,,,,,,,,,,,,,,,,,971163,2022_Jun_13_1552,palt,2021.1.2,59.71056208642388,
1,bagoly,kirakó,,,,,,,,,1,0,1,0,,,,,0,8,8,0,,,,,,,,,793.8941681911238,None,,,,,,,,,,,kirakó,794.91226908518,None,None,,794.91226908518,None,794.91226908518,None,794.91226908518,None, ,809.8923612427898,None,809.8923612427898,None,down,1.8942534066736698,809.8923612427898,None,811.8185142842121,None,4,3.513059166725725,811.8185142842121,None,,,,,,,,,,,,,,,,,,,,,,,,,,,971163,2022_Jun_13_1552,palt,2021.1.2,59.71056208642388,
6,menta,triatlon,,,,,,,,,1,0,1,0,,,,,0,9,9,5,,,,,,,,,815.3597845472395,None,,,,,,,,,,,menta,816.3807395487092,None,None,,816.3807395487092,None,816.3807395487092,None,816.3807395487092,None, ,831.3844856228679,None,831.3844856228679,None,down,1.586087245028466,831.3844856228679,None,832.9956555487588,None,4,22.063594315666705,832.9956555487588,None,,,,,,,,,,,,,,,,,,,,,,,,,,,971163,2022_Jun_13_1552,palt,2021.1.2,59.71056208642388,
,,,,,,,,,,,1,0,1,0,,,,,,,,,,,,,,,,,,,,,,,,,,,,,,,,,,,,,,,,,,,,,,,,,,,,,,,,,,,,,,,,,,,,,,,,,,,4,22.911729488987476,855.1451809839346,None,855.1451809839346,None,971163,2022_Jun_13_1552,palt,2021.1.2,59.71056208642388,
1,bagoly,kirakó,,,,,,,,,2,0,2,0,0,0,0,0,,,,,,,,,,,,,882.1007580473088,None,883.0965090752579,None,883.0965090752579,None,,,,,,,,,,,,,,,,,,,,,,,,,,,,,,,,,,,,,,,878.0838218727149,None,,,,,,,,,,,,,,,,,,,971163,2022_Jun_13_1552,palt,2021.1.2,59.71056208642388,
8,szalvéta,puska,,,,,,,,,2,0,2,0,0,1,1,7,,,,,,,,,,,,,889.0984646850266,None,890.1111462893896,None,890.1111462893896,None,,,,,,,,,,,,,,,,,,,,,,,,,,,,,,,,,,,,,,,,,,,,,,,,,,,,,,,,,,,971163,2022_Jun_13_1552,palt,2021.1.2,59.71056208642388,
2,kötény,tisztás,,,,,,,,,2,0,2,0,0,2,2,1,,,,,,,,,,,,,896.0952289723791,None,897.1095903236419,None,897.1095903236419,None,,,,,,,,,,,,,,,,,,,,,,,,,,,,,,,,,,,,,,,,,,,,,,,,,,,,,,,,,,,971163,2022_Jun_13_1552,palt,2021.1.2,59.71056208642388,
3,fogó,limonádé,,,,,,,,,2,0,2,0,0,3,3,2,,,,,,,,,,,,,903.098588776309,None,904.1002887384966,None,904.1002887384966,None,,,,,,,,,,,,,,,,,,,,,,,,,,,,,,,,,,,,,,,,,,,,,,,,,,,,,,,,,,,971163,2022_Jun_13_1552,palt,2021.1.2,59.71056208642388,
6,menta,triatlon,,,,,,,,,2,0,2,0,0,4,4,5,,,,,,,,,,,,,910.0983971962705,None,911.1101097045466,None,911.1101097045466,None,,,,,,,,,,,,,,,,,,,,,,,,,,,,,,,,,,,,,,,,,,,,,,,,,,,,,,,,,,,971163,2022_Jun_13_1552,palt,2021.1.2,59.71056208642388,
7,csavarhúzó,hering,,,,,,,,,2,0,2,0,0,5,5,6,,,,,,,,,,,,,917.0966530716978,None,918.1278432998806,None,918.1278432998806,None,,,,,,,,,,,,,,,,,,,,,,,,,,,,,,,,,,,,,,,,,,,,,,,,,,,,,,,,,,,971163,2022_Jun_13_1552,palt,2021.1.2,59.71056208642388,
9,szilva,kecske,,,,,,,,,2,0,2,0,0,6,6,8,,,,,,,,,,,,,924.0970026426949,None,925.1302109928802,None,925.1302109928802,None,,,,,,,,,,,,,,,,,,,,,,,,,,,,,,,,,,,,,,,,,,,,,,,,,,,,,,,,,,,971163,2022_Jun_13_1552,palt,2021.1.2,59.71056208642388,
4,mocsár,ananász,,,,,,,,,2,0,2,0,0,7,7,3,,,,,,,,,,,,,931.0966536933556,None,932.1037098108791,None,932.1037098108791,None,,,,,,,,,,,,,,,,,,,,,,,,,,,,,,,,,,,,,,,,,,,,,,,,,,,,,,,,,,,971163,2022_Jun_13_1552,palt,2021.1.2,59.71056208642388,
10,málna,dominó,,,,,,,,,2,0,2,0,0,8,8,9,,,,,,,,,,,,,938.0914284717292,None,939.1404026788659,None,939.1404026788659,None,,,,,,,,,,,,,,,,,,,,,,,,,,,,,,,,,,,,,,,,,,,,,,,,,,,,,,,,,,,971163,2022_Jun_13_1552,palt,2021.1.2,59.71056208642388,
5,karton,hentes,,,,,,,,,2,0,2,0,0,9,9,4,,,,,,,,,,,,,945.0980840129778,None,946.1247606026009,None,946.1247606026009,None,,,,,,,,,,,,,,,,,,,,,,,,,,,,,,,,,,,,,,,,,,,,,,,,,,,,,,,,,,,971163,2022_Jun_13_1552,palt,2021.1.2,59.71056208642388,
1,bagoly,kirakó,,,,,,,,,2,0,2,0,,,,,0,0,0,0,,,,,,,,,958.1191176990978,None,,,,,,,,,,,kirakó,959.1106203771196,None,4,5.738385925535113,959.1106203771196,None,959.1106203771196,None,959.1106203771196,None,bagoly,964.8883134922944,None,964.8883134922944,None,down,4.208543599583209,964.8883134922944,None,969.1508708493784,None,4,1.6610022000968456,969.1508708493784,None,,,,,,,954.0945976288058,None,952.0965538602322,None,u,1.4809082387946546,952.0965538602322,None,953.6111521986313,None,4,0.4548689010553062,953.6111521986313,None,,,,,,,971163,2022_Jun_13_1552,palt,2021.1.2,59.71056208642388,
2,kötény,tisztás,,,,,,,,,2,0,2,0,,,,,0,1,1,1,,,,,,,,,970.8338310476393,None,,,,,,,,,,,tisztás,971.849208145868,None,None,,971.849208145868,None,971.849208145868,None,971.849208145868,None, ,986.8539114985615,None,986.8539114985615,None,down,1.9067303691990674,986.8539114985615,None,988.8399174464867,None,4,7.621677594259381,988.8399174464867,None,,,,,,,,,,,,,,,,,,,,,,,,,,,971163,2022_Jun_13_1552,palt,2021.1.2,59.71056208642388,
6,menta,triatlon,,,,,,,,,2,0,2,0,,,,,0,2,2,5,,,,,,,,,996.4978313511238,None,,,,,,,,,,,menta,997.5154766207561,None,4,2.081908871419728,997.5154766207561,None,997.5154766207561,None,997.5154766207561,None, triatlon,999.6441950933076,None,999.6441950933076,None,down,3.164282697252929,999.6441950933076,None,1002.8487245310098,None,4,0.9887446719221771,1002.8487245310098,None,,,,,,,,,,,,,,,,,,,,,,,,,,,971163,2022_Jun_13_1552,palt,2021.1.2,59.71056208642388,
5,karton,hentes,,,,,,,,,2,0,2,0,,,,,0,3,3,4,,,,,,,,,1003.868235217873,None,,,,,,,,,,,karton,1004.8923391611315,None,4,2.2810308379121125,1004.8923391611315,None,1004.8923391611315,None,1004.8923391611315,None, hentes,1007.215672803577,None,1007.215672803577,None,down,3.7688872744329274,1007.215672803577,None,1011.0080146398395,None,4,1.074422009754926,1011.0080146398395,None,,,,,,,,,,,,,,,,,,,,,,,,,,,971163,2022_Jun_13_1552,palt,2021.1.2,59.71056208642388,
7,csavarhúzó,hering,,,,,,,,,2,0,2,0,,,,,0,4,4,6,,,,,,,,,1012.1282833740115,None,,,,,,,,,,,csavarhúzó,1013.1588997957297,None,4,3.2153798355720937,1013.1588997957297,None,1013.1588997957297,None,1013.1588997957297,None, hering,1016.4178392132744,None,1016.4178392132744,None,down,2.5824238983914256,1016.4178392132744,None,1019.0440705660731,None,4,1.3901387895457447,1019.0440705660731,None,,,,,,,,,,,,,,,,,,,,,,,,,,,971163,2022_Jun_13_1552,palt,2021.1.2,59.71056208642388,
4,mocsár,ananász,,,,,,,,,2,0,2,0,,,,,0,5,5,3,,,,,,,,,1020.4731601318344,None,,,,,,,,,,,mocsár,1021.4928745282814,None,4,2.4033456845209002,1021.4928745282814,None,1021.4928745282814,None,1021.4928745282814,None, ananász,1023.9281608997844,None,1023.9281608997844,None,down,2.7523669158108532,1023.9281608997844,None,1026.718738084659,None,4,0.7676395159214735,1026.718738084659,None,,,,,,,,,,,,,,,,,,,,,,,,,,,971163,2022_Jun_13_1552,palt,2021.1.2,59.71056208642388,
3,fogó,limonádé,,,,,,,,,2,0,2,0,,,,,0,6,6,2,,,,,,,,,1027.5275337239727,None,,,,,,,,,,,fogó,1028.540812772233,None,4,5.486291451845318,1028.540812772233,None,1028.540812772233,None,1028.540812772233,None, limonádé,1034.060254104901,None,1034.060254104901,None,down,3.9485060176812112,1034.060254104901,None,1038.0432737674564,None,4,1.454851174261421,1038.0432737674564,None,,,,,,,,,,,,,,,,,,,,,,,,,,,971163,2022_Jun_13_1552,palt,2021.1.2,59.71056208642388,
8,szalvéta,puska,,,,,,,,,2,0,2,0,,,,,0,7,7,7,,,,,,,,,1039.519471500069,None,,,,,,,,,,,puska,1040.5491598779336,None,4,2.1208478291518986,1040.5491598779336,None,1040.5491598779336,None,1040.5491598779336,None, szalvéta,1042.7027246663347,None,1042.7027246663347,None,down,4.601216160226613,1042.7027246663347,None,1047.325690139085,None,4,0.9241691301576793,1047.325690139085,None,,,,,,,,,,,,,,,,,,,,,,,,,,,971163,2022_Jun_13_1552,palt,2021.1.2,59.71056208642388,
10,málna,dominó,,,,,,,,,2,0,2,0,,,,,0,8,8,9,,,,,,,,,1048.293278587982,None,,,,,,,,,,,málna,1049.3084725034423,None,4,2.3028134275227785,1049.3084725034423,None,1049.3084725034423,None,1049.3084725034423,None, dominó,1051.6465260875411,None,1051.6465260875411,None,down,3.1774245919659734,1051.6465260875411,None,1054.8541080546565,None,4,0.841941166203469,1054.8541080546565,None,,,,,,,,,,,,,,,,,,,,,,,,,,,971163,2022_Jun_13_1552,palt,2021.1.2,59.71056208642388,
9,szilva,kecske,,,,,,,,,2,0,2,0,,,,,0,9,9,8,,,,,,,,,1055.7213290804066,None,,,,,,,,,,,kecske,1056.7389289429411,None,4,6.140853327233344,1056.7389289429411,None,1056.7389289429411,None,1056.7389289429411,None, szilva,1062.9115966889076,None,1062.9115966889076,None,down,2.664180687163025,1062.9115966889076,None,1065.6050866371952,None,4,2.9055417021736503,1065.6050866371952,None,,,,,,,,,,,,,,,,,,,,,,,,,,,971163,2022_Jun_13_1552,palt,2021.1.2,59.71056208642388,
,,,,,,,,,,,2,0,2,0,,,,,,,,,,,,,,,,,,,,,,,,,,,,,,,,,,,,,,,,,,,,,,,,,,,,,,,,,,,,,,,,,,,,,,,,,,,4,18.06304818810895,1068.5724141513929,None,1068.5724141513929,None,971163,2022_Jun_13_1552,palt,2021.1.2,59.71056208642388,
8,szalvéta,puska,,,,,,,,,3,0,3,0,0,0,0,7,,,,,,,,,,,,,1090.7008163300343,None,1091.6893890150823,None,1091.6893890150823,None,,,,,,,,,,,,,,,,,,,,,,,,,,,,,,,,,,,,,,,1086.67543663783,None,,,,,,,,,,,,,,,,,,,971163,2022_Jun_13_1552,palt,2021.1.2,59.71056208642388,
9,szilva,kecske,,,,,,,,,3,0,3,0,0,1,1,8,,,,,,,,,,,,,1097.6809081765823,None,1098.6913810120896,None,1098.6913810120896,None,,,,,,,,,,,,,,,,,,,,,,,,,,,,,,,,,,,,,,,,,,,,,,,,,,,,,,,,,,,971163,2022_Jun_13_1552,palt,2021.1.2,59.71056208642388,
7,csavarhúzó,hering,,,,,,,,,3,0,3,0,0,2,2,6,,,,,,,,,,,,,1104.6757995821536,None,1105.707883332856,None,1105.707883332856,None,,,,,,,,,,,,,,,,,,,,,,,,,,,,,,,,,,,,,,,,,,,,,,,,,,,,,,,,,,,971163,2022_Jun_13_1552,palt,2021.1.2,59.71056208642388,
1,bagoly,kirakó,,,,,,,,,3,0,3,0,0,3,3,0,,,,,,,,,,,,,1111.6781595004722,None,1112.7099561914802,None,1112.7099561914802,None,,,,,,,,,,,,,,,,,,,,,,,,,,,,,,,,,,,,,,,,,,,,,,,,,,,,,,,,,,,971163,2022_Jun_13_1552,palt,2021.1.2,59.71056208642388,
5,karton,hentes,,,,,,,,,3,0,3,0,0,4,4,4,,,,,,,,,,,,,1118.6794700822793,None,1119.6928735328838,None,1119.6928735328838,None,,,,,,,,,,,,,,,,,,,,,,,,,,,,,,,,,,,,,,,,,,,,,,,,,,,,,,,,,,,971163,2022_Jun_13_1552,palt,2021.1.2,59.71056208642388,
6,menta,triatlon,,,,,,,,,3,0,3,0,0,5,5,5,,,,,,,,,,,,,1125.6830174233764,None,1126.6913508446887,None,1126.6913508446887,None,,,,,,,,,,,,,,,,,,,,,,,,,,,,,,,,,,,,,,,,,,,,,,,,,,,,,,,,,,,971163,2022_Jun_13_1552,palt,2021.1.2,59.71056208642388,
4,mocsár,ananász,,,,,,,,,3,0,3,0,0,6,6,3,,,,,,,,,,,,,1132.6793245309964,None,1133.712965180166,None,1133.712965180166,None,,,,,,,,,,,,,,,,,,,,,,,,,,,,,,,,,,,,,,,,,,,,,,,,,,,,,,,,,,,971163,2022_Jun_13_1552,palt,2021.1.2,59.71056208642388,
10,málna,dominó,,,,,,,,,3,0,3,0,0,7,7,9,,,,,,,,,,,,,1139.6851720768027,None,1140.6906240223907,None,1140.6906240223907,None,,,,,,,,,,,,,,,,,,,,,,,,,,,,,,,,,,,,,,,,,,,,,,,,,,,,,,,,,,,971163,2022_Jun_13_1552,palt,2021.1.2,59.71056208642388,
2,kötény,tisztás,,,,,,,,,3,0,3,0,0,8,8,1,,,,,,,,,,,,,1146.6778758624569,None,1147.7228869125247,None,1147.7228869125247,None,,,,,,,,,,,,,,,,,,,,,,,,,,,,,,,,,,,,,,,,,,,,,,,,,,,,,,,,,,,971163,2022_Jun_13_1552,palt,2021.1.2,59.71056208642388,
3,fogó,limonádé,,,,,,,,,3,0,3,0,0,9,9,2,,,,,,,,,,,,,1153.6896216478199,None,1154.6984707182273,None,1154.6984707182273,None,,,,,,,,,,,,,,,,,,,,,,,,,,,,,,,,,,,,,,,,,,,,,,,,,,,,,,,,,,,971163,2022_Jun_13_1552,palt,2021.1.2,59.71056208642388,
1,bagoly,kirakó,,,,,,,,,3,0,3,0,,,,,0,0,0,0,,,,,,,,,1166.4303992143832,None,,,,,,,,,,,kirakó,1167.4417431792244,None,4,3.7991519472561777,1167.4417431792244,None,1167.4417431792244,None,1167.4417431792244,None, bagoly,1171.2882433910854,None,1171.2882433910854,None,down,3.262655013240874,1171.2882433910854,None,1174.5898261661641,None,4,0.1258276659063995,1174.5898261661641,None,,,,,,,1162.4154043425806,None,1160.678134619724,None,u,1.2645652159117162,1160.678134619724,None,1161.9658744912595,None,4,0.42102640913799405,1161.9658744912595,None,,,,,,,971163,2022_Jun_13_1552,palt,2021.1.2,59.71056208642388,
5,karton,hentes,,,,,,,,,3,0,3,0,,,,,0,1,1,4,,,,,,,,,1174.7419789847918,None,,,,,,,,,,,karton,1175.756952396594,None,4,2.0194923379458487,1175.756952396594,None,1175.756952396594,None,1175.756952396594,None,hentes,1177.7999953972176,None,1177.7999953972176,None,down,2.6065300186164677,1177.7999953972176,None,1180.4356829049066,None,4,1.2108242106623948,1180.4356829049066,None,,,,,,,,,,,,,,,,,,,,,,,,,,,971163,2022_Jun_13_1552,palt,2021.1.2,59.71056208642388,
8,szalvéta,puska,,,,,,,,,3,0,3,0,,,,,0,2,2,7,,,,,,,,,1181.670499408152,None,,,,,,,,,,,puska,1182.6914907977916,None,4,1.5497772260569036,1182.6914907977916,None,1182.6914907977916,None,1182.6914907977916,None, szalvéta,1184.284310401883,None,1184.284310401883,None,down,4.281963235232979,1184.284310401883,None,1188.6071224859916,None,4,0.7642249744385481,1188.6071224859916,None,,,,,,,,,,,,,,,,,,,,,,,,,,,971163,2022_Jun_13_1552,palt,2021.1.2,59.71056208642388,
6,menta,triatlon,,,,,,,,,3,0,3,0,,,,,0,3,3,5,,,,,,,,,1189.4019072791561,None,,,,,,,,,,,menta,1190.4215056700632,None,4,5.459758547134697,1190.4215056700632,None,1190.4215056700632,None,1190.4215056700632,None, triatlon,1195.9255633726716,None,1195.9255633726716,None,down,3.0567552810534835,1195.9255633726716,None,1199.0113377450034,None,4,1.4160192026756704,1199.0113377450034,None,,,,,,,,,,,,,,,,,,,,,,,,,,,971163,2022_Jun_13_1552,palt,2021.1.2,59.71056208642388,
2,kötény,tisztás,,,,,,,,,3,0,3,0,,,,,0,4,4,1,,,,,,,,,1200.4485284099355,None,,,,,,,,,,,tisztás,1201.488433976192,None,4,6.08368409704417,1201.488433976192,None,1201.488433976192,None,1201.488433976192,None, kötény,1207.601456257049,None,1207.601456257049,None,down,2.9806653424166143,1207.601456257049,None,1210.607725217007,None,4,0.8437051959335804,1210.607725217007,None,,,,,,,,,,,,,,,,,,,,,,,,,,,971163,2022_Jun_13_1552,palt,2021.1.2,59.71056208642388,
4,mocsár,ananász,,,,,,,,,3,0,3,0,,,,,0,5,5,3,,,,,,,,,1211.4794244263321,None,,,,,,,,,,,mocsár,1212.4957438749261,None,4,1.7803382258862257,1212.4957438749261,None,1212.4957438749261,None,1212.4957438749261,None, ananász,1214.3176947818138,None,1214.3176947818138,None,down,2.7442157440818846,1214.3176947818138,None,1217.096129647456,None,4,1.119742822367698,1217.096129647456,None,,,,,,,,,,,,,,,,,,,,,,,,,,,971163,2022_Jun_13_1552,palt,2021.1.2,59.71056208642388,
3,fogó,limonádé,,,,,,,,,3,0,3,0,,,,,0,6,6,2,,,,,,,,,1218.2495411098935,None,,,,,,,,,,,fogó,1219.2674370505847,None,4,3.8384336340241134,1219.2674370505847,None,1219.2674370505847,None,1219.2674370505847,None, limonádé,1223.1597339152358,None,1223.1597339152358,None,down,4.686218303162605,1223.1597339152358,None,1227.8698571175337,None,4,0.5440189391374588,1227.8698571175337,None,,,,,,,,,,,,,,,,,,,,,,,,,,,971163,2022_Jun_13_1552,palt,2021.1.2,59.71056208642388,
7,csavarhúzó,hering,,,,,,,,,3,0,3,0,,,,,0,7,7,6,,,,,,,,,1228.4502890184522,None,,,,,,,,,,,csavarhúzó,1229.4796234704554,None,4,1.7581702983006835,1229.4796234704554,None,1229.4796234704554,None,1229.4796234704554,None, hering,1231.2869695080444,None,1231.2869695080444,None,down,2.574989285785705,1231.2869695080444,None,1233.8885352397338,None,4,0.7913338635116816,1233.8885352397338,None,,,,,,,,,,,,,,,,,,,,,,,,,,,971163,2022_Jun_13_1552,palt,2021.1.2,59.71056208642388,
10,málna,dominó,,,,,,,,,3,0,3,0,,,,,0,8,8,9,,,,,,,,,1234.7124501531944,None,,,,,,,,,,,málna,1235.7407965376042,None,4,1.6043940256349742,1235.7407965376042,None,1235.7407965376042,None,1235.7407965376042,None, dominó,1237.3810371821746,None,1237.3810371821746,None,down,3.536635020747781,1237.3810371821746,None,1240.9558140505105,None,4,1.136902299709618,1240.9558140505105,None,,,,,,,,,,,,,,,,,,,,,,,,,,,971163,2022_Jun_13_1552,palt,2021.1.2,59.71056208642388,
9,szilva,kecske,,,,,,,,,3,0,3,0,,,,,0,9,9,8,,,,,,,,,1242.1128785959445,None,,,,,,,,,,,kecske,1243.1365294028074,None,4,2.754198433365673,1243.1365294028074,None,1243.1365294028074,None,1243.1365294028074,None, szilva,1245.9213100466877,None,1245.9213100466877,None,down,3.332392331212759,1245.9213100466877,None,1249.2893126318231,None,4,0.961391331627965,1249.2893126318231,None,,,,,,,,,,,,,,,,,,,,,,,,,,,971163,2022_Jun_13_1552,palt,2021.1.2,59.71056208642388,
