itemno,wordA,wordB,enc_gyak.thisRepN,enc_gyak.thisTrialN,enc_gyak.thisN,enc_gyak.thisIndex,rec_gyak.thisRepN,rec_gyak.thisTrialN,rec_gyak.thisN,rec_gyak.thisIndex,repeat_task.thisRepN,repeat_task.thisTrialN,repeat_task.thisN,repeat_task.thisIndex,enc_loop.thisRepN,enc_loop.thisTrialN,enc_loop.thisN,enc_loop.thisIndex,test_loop.thisRepN,test_loop.thisTrialN,test_loop.thisN,test_loop.thisIndex,int.started,int.stopped,int_key.keys,int_key.rt,int_key.started,int_key.stopped,prepare_gyak_text.started,prepare_gyak_text.stopped,fix.started,fix.stopped,word1.started,word1.stopped,word2.started,word2.stopped,gykrec_inst.started,gykrec_inst.stopped,gyakrec_inst.keys,gyakrec_inst.rt,gyakrec_inst.started,gyakrec_inst.stopped,cueword,cueword1.started,cueword1.stopped,cue_resp.keys,cue_resp.started,cue_resp.stopped,cue_cont_text.started,cue_cont_text.stopped,cue_space.started,cue_space.stopped,test_ansbox.text,test_ansbox.started,test_ansbox.stopped,ans_text.started,ans_text.stopped,ans_continue.keys,ans_continue.rt,ans_continue.started,ans_continue.stopped,feedback_text.started,feedback_text.stopped,feedback_cont.keys,feedback_cont.rt,feedback_cont.started,feedback_cont.stopped,cue_resp.rt,main_prep.started,main_prep.stopped,main_prep_resp.keys,main_prep_resp.rt,main_prep_resp.started,main_prep_resp.stopped,preparation.started,preparation.stopped,break_text.started,break_text.stopped,key_resp.keys,key_resp.rt,key_resp.started,key_resp.stopped,test_instruction.started,test_instruction.stopped,test_i_key.keys,test_i_key.rt,test_i_key.started,test_i_key.stopped,rep_routine.keys,rep_routine.rt,rep_routine.started,rep_routine.stopped,encrep_textbox.started,encrep_textbox.stopped,end_text.started,end_text.stopped,Résztvevő kódja,date,expName,psychopyVersion,frameRate,
,,,,,,,,,,,,,,,,,,,,,,,24.716439486015588,None,4,16.750689503736794,24.716439486015588,None,,,,,,,,,,,,,,,,,,,,,,,,,,,,,,,,,,,,,,,,,,,,,,,,,,,,,,,,,,,,,,,,,,,,,704497,2022_Apr_12_1421,palt,2021.1.2,50.96354013137246,
4,kard,harcsa,0,0,0,3,,,,,,,,,,,,,,,,,,,,,,,41.500926802516915,None,44.528710351209156,None,45.539237334858626,None,45.539237334858626,None,,,,,,,,,,,,,,,,,,,,,,,,,,,,,,,,,,,,,,,,,,,,,,,,,,,,,,,,,,,,,704497,2022_Apr_12_1421,palt,2021.1.2,50.96354013137246,
3,majoránna,szikla,0,1,1,2,,,,,,,,,,,,,,,,,,,,,,,,,51.51665974158095,None,52.533027758065145,None,52.533027758065145,None,,,,,,,,,,,,,,,,,,,,,,,,,,,,,,,,,,,,,,,,,,,,,,,,,,,,,,,,,,,,,704497,2022_Apr_12_1421,palt,2021.1.2,50.96354013137246,
2,lepke,szintetizátor,0,2,2,1,,,,,,,,,,,,,,,,,,,,,,,,,58.50582672649762,None,59.53267320943996,None,59.53267320943996,None,,,,,,,,,,,,,,,,,,,,,,,,,,,,,,,,,,,,,,,,,,,,,,,,,,,,,,,,,,,,,704497,2022_Apr_12_1421,palt,2021.1.2,50.96354013137246,
1,sapka,beton,0,3,3,0,,,,,,,,,,,,,,,,,,,,,,,,,65.51597894605948,None,66.5395206627436,None,66.5395206627436,None,,,,,,,,,,,,,,,,,,,,,,,,,,,,,,,,,,,,,,,,,,,,,,,,,,,,,,,,,,,,,704497,2022_Apr_12_1421,palt,2021.1.2,50.96354013137246,
,,,,,,,,,,,,,,,,,,,,,,,,,,,,,,,,,,,,,72.52474593796069,None,4,5.615432630176656,72.52474593796069,None,,,,,,,,,,,,,,,,,,,,,,,,,,,,,,,,,,,,,,,,,,,,,,,,,,,,,,,704497,2022_Apr_12_1421,palt,2021.1.2,50.96354013137246,
1,sapka,beton,,,,,0,0,0,0,,,,,,,,,,,,,,,,,,,,,78.19998189934995,None,,,,,,,,,,,sapka,79.2212940028985,None,None,79.2212940028985,None,79.2212940028985,None,79.2212940028985,None, ,94.22340201208135,None,94.22340201208135,None,down,2.7512670448049903,94.22340201208135,None,97.05290362873347,None,4,9.65949213708518,97.05290362873347,None,,,,,,,,,,,,,,,,,,,,,,,,,,,,,,704497,2022_Apr_12_1421,palt,2021.1.2,50.96354013137246,
3,majoránna,szikla,,,,,0,1,1,2,,,,,,,,,,,,,,,,,,,,,106.76266049547121,None,,,,,,,,,,,szikla,107.77915415901225,None,None,107.77915415901225,None,107.77915415901225,None,107.77915415901225,None, ,122.77029790793313,None,122.77029790793313,None,down,1.6758306078845635,122.77029790793313,None,124.48916480789194,None,4,8.392946535313968,124.48916480789194,None,,,,,,,,,,,,,,,,,,,,,,,,,,,,,,704497,2022_Apr_12_1421,palt,2021.1.2,50.96354013137246,
4,kard,harcsa,,,,,0,2,2,3,,,,,,,,,,,,,,,,,,,,,132.9082393986755,None,,,,,,,,,,,harcsa,133.92376178567065,None,4,133.92376178567065,None,133.92376178567065,None,133.92376178567065,None, kutya,139.02792381308973,None,139.02792381308973,None,down,3.05025944247609,139.02792381308973,None,142.1232837048592,None,4,11.531622625887394,142.1232837048592,None,5.0686975252465345,,,,,,,,,,,,,,,,,,,,,,,,,,,,,704497,2022_Apr_12_1421,palt,2021.1.2,50.96354013137246,
2,lepke,szintetizátor,,,,,0,3,3,1,,,,,,,,,,,,,,,,,,,,,153.69575095264008,None,,,,,,,,,,,szintetizátor,154.73331475583836,None,4,154.73331475583836,None,154.73331475583836,None,154.73331475583836,None, lepke,163.02313243073877,None,163.02313243073877,None,down,2.926860042847693,163.02313243073877,None,165.98580374929588,None,4,38.24190789449494,165.98580374929588,None,8.244630765577313,,,,,,,,,,,,,,,,,,,,,,,,,,,,,704497,2022_Apr_12_1421,palt,2021.1.2,50.96354013137246,
,,,,,,,,,,,,,,,,,,,,,,,,,,,,,,,,,,,,,,,,,,,,,,,,,,,,,,,,,,,,,,,,,,,,,204.27285127993673,None,4,17.632502279651817,204.27285127993673,None,,,,,,,,,,,,,,,,,,,,,,,704497,2022_Apr_12_1421,palt,2021.1.2,50.96354013137246,
7,csavarhúzó,hering,,,,,,,,,0,0,0,0,0,0,0,6,,,,,,,,,,,,,225.98412835161434,None,226.9777219070238,None,226.9777219070238,None,,,,,,,,,,,,,,,,,,,,,,,,,,,,,,,,,,,,,,,221.94955706305336,None,,,,,,,,,,,,,,,,,,,,,704497,2022_Apr_12_1421,palt,2021.1.2,50.96354013137246,
1,bagoly,kirakó,,,,,,,,,0,0,0,0,0,1,1,0,,,,,,,,,,,,,232.95857783709653,None,233.9737239049282,None,233.9737239049282,None,,,,,,,,,,,,,,,,,,,,,,,,,,,,,,,,,,,,,,,,,,,,,,,,,,,,,,,,,,,,,704497,2022_Apr_12_1421,palt,2021.1.2,50.96354013137246,
4,mocsár,ananász,,,,,,,,,0,0,0,0,0,2,2,3,,,,,,,,,,,,,239.95994751440594,None,240.97187278798083,None,240.97187278798083,None,,,,,,,,,,,,,,,,,,,,,,,,,,,,,,,,,,,,,,,,,,,,,,,,,,,,,,,,,,,,,704497,2022_Apr_12_1421,palt,2021.1.2,50.96354013137246,
6,menta,triatlon,,,,,,,,,0,0,0,0,0,3,3,5,,,,,,,,,,,,,246.9577732605976,None,247.97173438960453,None,247.97173438960453,None,,,,,,,,,,,,,,,,,,,,,,,,,,,,,,,,,,,,,,,,,,,,,,,,,,,,,,,,,,,,,704497,2022_Apr_12_1421,palt,2021.1.2,50.96354013137246,
3,fogó,limonádé,,,,,,,,,0,0,0,0,0,4,4,2,,,,,,,,,,,,,253.9572230882477,None,254.97318772791186,None,254.97318772791186,None,,,,,,,,,,,,,,,,,,,,,,,,,,,,,,,,,,,,,,,,,,,,,,,,,,,,,,,,,,,,,704497,2022_Apr_12_1421,palt,2021.1.2,50.96354013137246,
8,szalvéta,puska,,,,,,,,,0,0,0,0,0,5,5,7,,,,,,,,,,,,,260.95889972994337,None,261.9751393002807,None,261.9751393002807,None,,,,,,,,,,,,,,,,,,,,,,,,,,,,,,,,,,,,,,,,,,,,,,,,,,,,,,,,,,,,,704497,2022_Apr_12_1421,palt,2021.1.2,50.96354013137246,
10,málna,dominó,,,,,,,,,0,0,0,0,0,6,6,9,,,,,,,,,,,,,267.95717612607405,None,268.96948767104186,None,268.96948767104186,None,,,,,,,,,,,,,,,,,,,,,,,,,,,,,,,,,,,,,,,,,,,,,,,,,,,,,,,,,,,,,704497,2022_Apr_12_1421,palt,2021.1.2,50.96354013137246,
9,szilva,kecske,,,,,,,,,0,0,0,0,0,7,7,8,,,,,,,,,,,,,274.9593360735453,None,275.9795979045448,None,275.9795979045448,None,,,,,,,,,,,,,,,,,,,,,,,,,,,,,,,,,,,,,,,,,,,,,,,,,,,,,,,,,,,,,704497,2022_Apr_12_1421,palt,2021.1.2,50.96354013137246,
5,karton,hentes,,,,,,,,,0,0,0,0,0,8,8,4,,,,,,,,,,,,,281.95890346204396,None,282.96836368978256,None,282.96836368978256,None,,,,,,,,,,,,,,,,,,,,,,,,,,,,,,,,,,,,,,,,,,,,,,,,,,,,,,,,,,,,,704497,2022_Apr_12_1421,palt,2021.1.2,50.96354013137246,
2,kötény,tisztás,,,,,,,,,0,0,0,0,0,9,9,1,,,,,,,,,,,,,288.957578880887,None,289.964760667237,None,289.964760667237,None,,,,,,,,,,,,,,,,,,,,,,,,,,,,,,,,,,,,,,,,,,,,,,,,,,,,,,,,,,,,,704497,2022_Apr_12_1421,palt,2021.1.2,50.96354013137246,
6,menta,triatlon,,,,,,,,,0,0,0,0,,,,,0,0,0,5,,,,,,,,,311.64063108409755,None,,,,,,,,,,,menta,312.6359205637127,None,4,312.6359205637127,None,312.6359205637127,None,312.6359205637127,None, ,323.45887889241567,None,323.45887889241567,None,down,2.905614494928159,323.45887889241567,None,326.4165072234464,None,4,7.067038299981505,326.4165072234464,None,10.776673562766518,,,,,,,307.6258028660086,None,295.95858654531185,None,u,6.822246121417265,295.95858654531185,None,302.81081192876445,None,4,4.784011163923424,302.81081192876445,None,,,,,,,,,704497,2022_Apr_12_1421,palt,2021.1.2,50.96354013137246,
10,málna,dominó,,,,,,,,,0,0,0,0,,,,,0,1,1,9,,,,,,,,,333.5161916752113,None,,,,,,,,,,,málna,334.5354704113561,None,4,334.5354704113561,None,334.5354704113561,None,334.5354704113561,None, dominó,342.20999509852845,None,342.20999509852845,None,down,3.1463918769732118,342.20999509852845,None,345.41664997593034,None,4,6.332747913489584,345.41664997593034,None,7.639323919371236,,,,,,,,,,,,,,,,,,,,,,,,,,,,,704497,2022_Apr_12_1421,palt,2021.1.2,50.96354013137246,
3,fogó,limonádé,,,,,,,,,0,0,0,0,,,,,0,2,2,2,,,,,,,,,351.78130633127876,None,,,,,,,,,,,limonádé,352.80746953061316,None,4,352.80746953061316,None,352.80746953061316,None,352.80746953061316,None, ,361.8737200484029,None,361.8737200484029,None,down,1.9145665363175794,361.8737200484029,None,363.82621924293926,None,4,2.3091548804659396,363.82621924293926,None,9.034816984494682,,,,,,,,,,,,,,,,,,,,,,,,,,,,,704497,2022_Apr_12_1421,palt,2021.1.2,50.96354013137246,
5,karton,hentes,,,,,,,,,0,0,0,0,,,,,0,3,3,4,,,,,,,,,366.163304156682,None,,,,,,,,,,,karton,367.1880892815534,None,4,367.1880892815534,None,367.1880892815534,None,367.1880892815534,None, ,375.68994195357664,None,375.68994195357664,None,down,1.7945614731288515,375.68994195357664,None,377.5097416896024,None,4,12.536393481772393,377.5097416896024,None,8.45799780805828,,,,,,,,,,,,,,,,,,,,,,,,,,,,,704497,2022_Apr_12_1421,palt,2021.1.2,50.96354013137246,
4,mocsár,ananász,,,,,,,,,0,0,0,0,,,,,0,4,4,3,,,,,,,,,390.0778010273352,None,,,,,,,,,,,ananász,391.10596835933393,None,4,391.10596835933393,None,391.10596835933393,None,391.10596835933393,None, ,404.64113678236026,None,404.64113678236026,None,down,1.818820062209852,404.64113678236026,None,406.49744538398227,None,4,2.0293323663063347,406.49744538398227,None,13.497286459140014,,,,,,,,,,,,,,,,,,,,,,,,,,,,,704497,2022_Apr_12_1421,palt,2021.1.2,50.96354013137246,
7,csavarhúzó,hering,,,,,,,,,0,0,0,0,,,,,0,5,5,6,,,,,,,,,408.5599579020054,None,,,,,,,,,,,hering,409.5886256452068,None,4,409.5886256452068,None,409.5886256452068,None,409.5886256452068,None, ,416.2091905219713,None,416.2091905219713,None,down,1.706535450532101,416.2091905219713,None,417.95128315495094,None,4,1.1494447271106765,417.95128315495094,None,6.593124991457444,,,,,,,,,,,,,,,,,,,,,,,,,,,,,704497,2022_Apr_12_1421,palt,2021.1.2,50.96354013137246,
9,szilva,kecske,,,,,,,,,0,0,0,0,,,,,0,6,6,8,,,,,,,,,419.14225205546245,None,,,,,,,,,,,szilva,420.16352870414266,None,4,420.16352870414266,None,420.16352870414266,None,420.16352870414266,None, ,422.5018125520437,None,422.5018125520437,None,down,2.438340264663566,422.5018125520437,None,424.97463982214686,None,4,2.0010928805568255,424.97463982214686,None,2.304260865668766,,,,,,,,,,,,,,,,,,,,,,,,,,,,,704497,2022_Apr_12_1421,palt,2021.1.2,50.96354013137246,
1,bagoly,kirakó,,,,,,,,,0,0,0,0,,,,,0,7,7,0,,,,,,,,,427.0042038891115,None,,,,,,,,,,,bagoly,428.0200749154901,None,4,428.0200749154901,None,428.0200749154901,None,428.0200749154901,None, ,432.0727701691794,None,432.0727701691794,None,down,1.9069471622933634,432.0727701691794,None,434.00391465210123,None,4,2.9027127944864333,434.00391465210123,None,4.020626331854146,,,,,,,,,,,,,,,,,,,,,,,,,,,,,704497,2022_Apr_12_1421,palt,2021.1.2,50.96354013137246,
8,szalvéta,puska,,,,,,,,,0,0,0,0,,,,,0,8,8,7,,,,,,,,,436.93075696751475,None,,,,,,,,,,,puska,437.9577259874204,None,4,437.9577259874204,None,437.9577259874204,None,437.9577259874204,None, ,444.8761365771061,None,444.8761365771061,None,down,3.9193544976296835,444.8761365771061,None,448.8374886015663,None,4,2.9330512702581473,448.8374886015663,None,6.875746573670767,,,,,,,,,,,,,,,,,,,,,,,,,,,,,704497,2022_Apr_12_1421,palt,2021.1.2,50.96354013137246,
2,kötény,tisztás,,,,,,,,,0,0,0,0,,,,,0,9,9,1,,,,,,,,,451.79965670988895,None,,,,,,,,,,,tisztás,452.81323778769,None,4,452.81323778769,None,452.81323778769,None,452.81323778769,None, ,455.9502509208978,None,455.9502509208978,None,down,1.885174456576351,455.9502509208978,None,457.8778079316835,None,4,1.427018967748154,457.8778079316835,None,3.0963625800795853,,,,,,,,,,,,,,,,,,,,,,,,,,,,,704497,2022_Apr_12_1421,palt,2021.1.2,50.96354013137246,
,,,,,,,,,,,0,0,0,0,,,,,,,,,,,,,,,,,,,,,,,,,,,,,,,,,,,,,,,,,,,,,,,,,,,,,,,,,,,,,,,,,,,,,,,,,,,4,50.310564988758415,459.3724775732844,None,459.3724775732844,None,,,704497,2022_Apr_12_1421,palt,2021.1.2,50.96354013137246,
10,málna,dominó,,,,,,,,,1,0,1,0,0,0,0,9,,,,,,,,,,,,,513.7544063550304,None,514.7564104876947,None,514.7564104876947,None,,,,,,,,,,,,,,,,,,,,,,,,,,,,,,,,,,,,,,,509.7256446875981,None,,,,,,,,,,,,,,,,,,,,,704497,2022_Apr_12_1421,palt,2021.1.2,50.96354013137246,
9,szilva,kecske,,,,,,,,,1,0,1,0,0,1,1,8,,,,,,,,,,,,,520.7240286923479,None,521.7442861692398,None,521.7442861692398,None,,,,,,,,,,,,,,,,,,,,,,,,,,,,,,,,,,,,,,,,,,,,,,,,,,,,,,,,,,,,,704497,2022_Apr_12_1421,palt,2021.1.2,50.96354013137246,
3,fogó,limonádé,,,,,,,,,1,0,1,0,0,2,2,2,,,,,,,,,,,,,527.7230813633068,None,528.7369286635658,None,528.7369286635658,None,,,,,,,,,,,,,,,,,,,,,,,,,,,,,,,,,,,,,,,,,,,,,,,,,,,,,,,,,,,,,704497,2022_Apr_12_1421,palt,2021.1.2,50.96354013137246,
8,szalvéta,puska,,,,,,,,,1,0,1,0,0,3,3,7,,,,,,,,,,,,,534.724036778498,None,535.7448310544714,None,535.7448310544714,None,,,,,,,,,,,,,,,,,,,,,,,,,,,,,,,,,,,,,,,,,,,,,,,,,,,,,,,,,,,,,704497,2022_Apr_12_1421,palt,2021.1.2,50.96354013137246,
7,csavarhúzó,hering,,,,,,,,,1,0,1,0,0,4,4,6,,,,,,,,,,,,,541.7366904318333,None,542.7547195396037,None,542.7547195396037,None,,,,,,,,,,,,,,,,,,,,,,,,,,,,,,,,,,,,,,,,,,,,,,,,,,,,,,,,,,,,,704497,2022_Apr_12_1421,palt,2021.1.2,50.96354013137246,
6,menta,triatlon,,,,,,,,,1,0,1,0,0,5,5,5,,,,,,,,,,,,,548.7235111757764,None,549.7357375046704,None,549.7357375046704,None,,,,,,,,,,,,,,,,,,,,,,,,,,,,,,,,,,,,,,,,,,,,,,,,,,,,,,,,,,,,,704497,2022_Apr_12_1421,palt,2021.1.2,50.96354013137246,
4,mocsár,ananász,,,,,,,,,1,0,1,0,0,6,6,3,,,,,,,,,,,,,555.7241795309819,None,556.7363831563271,None,556.7363831563271,None,,,,,,,,,,,,,,,,,,,,,,,,,,,,,,,,,,,,,,,,,,,,,,,,,,,,,,,,,,,,,704497,2022_Apr_12_1421,palt,2021.1.2,50.96354013137246,
2,kötény,tisztás,,,,,,,,,1,0,1,0,0,7,7,1,,,,,,,,,,,,,562.7371186892269,None,563.7519780080765,None,563.7519780080765,None,,,,,,,,,,,,,,,,,,,,,,,,,,,,,,,,,,,,,,,,,,,,,,,,,,,,,,,,,,,,,704497,2022_Apr_12_1421,palt,2021.1.2,50.96354013137246,
1,bagoly,kirakó,,,,,,,,,1,0,1,0,0,8,8,0,,,,,,,,,,,,,569.7232353120344,None,570.7380719273351,None,570.7380719273351,None,,,,,,,,,,,,,,,,,,,,,,,,,,,,,,,,,,,,,,,,,,,,,,,,,,,,,,,,,,,,,704497,2022_Apr_12_1421,palt,2021.1.2,50.96354013137246,
5,karton,hentes,,,,,,,,,1,0,1,0,0,9,9,4,,,,,,,,,,,,,576.7236150522949,None,577.7426689299755,None,577.7426689299755,None,,,,,,,,,,,,,,,,,,,,,,,,,,,,,,,,,,,,,,,,,,,,,,,,,,,,,,,,,,,,,704497,2022_Apr_12_1421,palt,2021.1.2,50.96354013137246,
5,karton,hentes,,,,,,,,,1,0,1,0,,,,,0,0,0,4,,,,,,,,,593.4273296642932,None,,,,,,,,,,,karton,594.4307404840947,None,4,594.4307404840947,None,594.4307404840947,None,594.4307404840947,None, hentes,598.5349491627421,None,598.5349491627421,None,down,3.283646041061729,598.5349491627421,None,601.8524508639239,None,4,2.2808034320478328,601.8524508639239,None,4.060661090130452,,,,,,,589.4015760619077,None,583.739486389677,None,u,4.286953606351744,583.739486389677,None,588.0532295646262,None,4,1.3222806432750076,588.0532295646262,None,,,,,,,,,704497,2022_Apr_12_1421,palt,2021.1.2,50.96354013137246,
3,fogó,limonádé,,,,,,,,,1,0,1,0,,,,,0,1,1,2,,,,,,,,,604.1692294725799,None,,,,,,,,,,,limonádé,605.1882323450409,None,4,605.1882323450409,None,605.1882323450409,None,605.1882323450409,None, ,611.9753912164015,None,611.9753912164015,None,down,2.4509223861969076,611.9753912164015,None,614.458516568644,None,4,1.4607241002377123,614.458516568644,None,6.758976299955975,,,,,,,,,,,,,,,,,,,,,,,,,,,,,704497,2022_Apr_12_1421,palt,2021.1.2,50.96354013137246,
4,mocsár,ananász,,,,,,,,,1,0,1,0,,,,,0,2,2,3,,,,,,,,,615.9447106323787,None,,,,,,,,,,,ananász,616.958126876154,None,4,616.958126876154,None,616.958126876154,None,616.958126876154,None, ,625.5255051073618,None,625.5255051073618,None,down,1.7806046981713735,625.5255051073618,None,627.3308952414664,None,4,1.0083387345075607,627.3308952414664,None,8.536007521382999,,,,,,,,,,,,,,,,,,,,,,,,,,,,,704497,2022_Apr_12_1421,palt,2021.1.2,50.96354013137246,
1,bagoly,kirakó,,,,,,,,,1,0,1,0,,,,,0,3,3,0,,,,,,,,,628.3623328179237,None,,,,,,,,,,,bagoly,629.3853514199145,None,4,629.3853514199145,None,629.3853514199145,None,629.3853514199145,None, kirakó,633.7562898167525,None,633.7562898167525,None,down,2.8296546323690563,633.7562898167525,None,636.6326465872116,None,4,2.799336683063302,636.6326465872116,None,4.335741050133947,,,,,,,,,,,,,,,,,,,,,,,,,,,,,704497,2022_Apr_12_1421,palt,2021.1.2,50.96354013137246,
6,menta,triatlon,,,,,,,,,1,0,1,0,,,,,0,4,4,5,,,,,,,,,639.4789964159718,None,,,,,,,,,,,menta,640.5004245253513,None,4,640.5004245253513,None,640.5004245253513,None,640.5004245253513,None, triatlon,644.6751236877171,None,644.6751236877171,None,down,3.7027722591301426,644.6751236877171,None,648.4238864996587,None,4,1.9419600815162994,648.4238864996587,None,4.1355657040840015,,,,,,,,,,,,,,,,,,,,,,,,,,,,,704497,2022_Apr_12_1421,palt,2021.1.2,50.96354013137246,
9,szilva,kecske,,,,,,,,,1,0,1,0,,,,,0,5,5,8,,,,,,,,,650.3915311399614,None,,,,,,,,,,,szilva,651.3982535682153,None,4,651.3982535682153,None,651.3982535682153,None,651.3982535682153,None, kecske,656.0814404377015,None,656.0814404377015,None,down,2.600665991543792,656.0814404377015,None,658.7110898451065,None,4,1.687708608340472,658.7110898451065,None,4.643599962175358,,,,,,,,,,,,,,,,,,,,,,,,,,,,,704497,2022_Apr_12_1421,palt,2021.1.2,50.96354013137246,
10,málna,dominó,,,,,,,,,1,0,1,0,,,,,0,6,6,9,,,,,,,,,660.4411038777907,None,,,,,,,,,,,málna,661.4669094184646,None,4,661.4669094184646,None,661.4669094184646,None,661.4669094184646,None, ,667.3457470961148,None,667.3457470961148,None,down,1.9440481862984598,667.3457470961148,None,669.3288907977985,None,4,1.053920934384223,669.3288907977985,None,5.833750912803225,,,,,,,,,,,,,,,,,,,,,,,,,,,,,704497,2022_Apr_12_1421,palt,2021.1.2,50.96354013137246,
2,kötény,tisztás,,,,,,,,,1,0,1,0,,,,,0,7,7,1,,,,,,,,,670.4110577491228,None,,,,,,,,,,,tisztás,671.4243265753612,None,4,671.4243265753612,None,671.4243265753612,None,671.4243265753612,None, ,677.2463419291889,None,677.2463419291889,None,down,1.4837619846803136,677.2463419291889,None,678.7579285155516,None,4,0.8890029595349915,678.7579285155516,None,5.7672459907480516,,,,,,,,,,,,,,,,,,,,,,,,,,,,,704497,2022_Apr_12_1421,palt,2021.1.2,50.96354013137246,
8,szalvéta,puska,,,,,,,,,1,0,1,0,,,,,0,8,8,7,,,,,,,,,679.6705126897432,None,,,,,,,,,,,puska,680.6936774652568,None,4,680.6936774652568,None,680.6936774652568,None,680.6936774652568,None, ,689.9107346123201,None,689.9107346123201,None,down,1.8748801065958105,689.9107346123201,None,691.8173421543324,None,4,1.2515460185240954,691.8173421543324,None,9.170906114275567,,,,,,,,,,,,,,,,,,,,,,,,,,,,,704497,2022_Apr_12_1421,palt,2021.1.2,50.96354013137246,
7,csavarhúzó,hering,,,,,,,,,1,0,1,0,,,,,0,9,9,6,,,,,,,,,693.1048505982035,None,,,,,,,,,,,hering,694.1230628894991,None,4,694.1230628894991,None,694.1230628894991,None,694.1230628894991,None, ,704.7081741493312,None,704.7081741493312,None,down,1.781401499581989,704.7081741493312,None,706.5349597369786,None,4,1.4097885272931308,706.5349597369786,None,10.550600928836502,,,,,,,,,,,,,,,,,,,,,,,,,,,,,704497,2022_Apr_12_1421,palt,2021.1.2,50.96354013137246,
,,,,,,,,,,,1,0,1,0,,,,,,,,,,,,,,,,,,,,,,,,,,,,,,,,,,,,,,,,,,,,,,,,,,,,,,,,,,,,,,,,,,,,,,,,,,,4,4.82564263488166,708.006702523795,None,708.006702523795,None,,,704497,2022_Apr_12_1421,palt,2021.1.2,50.96354013137246,
3,fogó,limonádé,,,,,,,,,2,0,2,0,0,0,0,2,,,,,,,,,,,,,716.9063770854846,None,717.8887379811495,None,717.8887379811495,None,,,,,,,,,,,,,,,,,,,,,,,,,,,,,,,,,,,,,,,712.8776819736231,None,,,,,,,,,,,,,,,,,,,,,704497,2022_Apr_12_1421,palt,2021.1.2,50.96354013137246,
2,kötény,tisztás,,,,,,,,,2,0,2,0,0,1,1,1,,,,,,,,,,,,,723.8880388361285,None,724.9036181374686,None,724.9036181374686,None,,,,,,,,,,,,,,,,,,,,,,,,,,,,,,,,,,,,,,,,,,,,,,,,,,,,,,,,,,,,,704497,2022_Apr_12_1421,palt,2021.1.2,50.96354013137246,
4,mocsár,ananász,,,,,,,,,2,0,2,0,0,2,2,3,,,,,,,,,,,,,730.8882036701543,None,731.903179616842,None,731.903179616842,None,,,,,,,,,,,,,,,,,,,,,,,,,,,,,,,,,,,,,,,,,,,,,,,,,,,,,,,,,,,,,704497,2022_Apr_12_1421,palt,2021.1.2,50.96354013137246,
6,menta,triatlon,,,,,,,,,2,0,2,0,0,3,3,5,,,,,,,,,,,,,737.8863572183182,None,738.8886138891103,None,738.8886138891103,None,,,,,,,,,,,,,,,,,,,,,,,,,,,,,,,,,,,,,,,,,,,,,,,,,,,,,,,,,,,,,704497,2022_Apr_12_1421,palt,2021.1.2,50.96354013137246,
5,karton,hentes,,,,,,,,,2,0,2,0,0,4,4,4,,,,,,,,,,,,,744.8716207474354,None,745.8829184077913,None,745.8829184077913,None,,,,,,,,,,,,,,,,,,,,,,,,,,,,,,,,,,,,,,,,,,,,,,,,,,,,,,,,,,,,,704497,2022_Apr_12_1421,palt,2021.1.2,50.96354013137246,
8,szalvéta,puska,,,,,,,,,2,0,2,0,0,5,5,7,,,,,,,,,,,,,751.8714568464784,None,752.8877321826876,None,752.8877321826876,None,,,,,,,,,,,,,,,,,,,,,,,,,,,,,,,,,,,,,,,,,,,,,,,,,,,,,,,,,,,,,704497,2022_Apr_12_1421,palt,2021.1.2,50.96354013137246,
10,málna,dominó,,,,,,,,,2,0,2,0,0,6,6,9,,,,,,,,,,,,,758.8716241685324,None,759.8847732568393,None,759.8847732568393,None,,,,,,,,,,,,,,,,,,,,,,,,,,,,,,,,,,,,,,,,,,,,,,,,,,,,,,,,,,,,,704497,2022_Apr_12_1421,palt,2021.1.2,50.96354013137246,
9,szilva,kecske,,,,,,,,,2,0,2,0,0,7,7,8,,,,,,,,,,,,,765.8845739010139,None,766.898282491893,None,766.898282491893,None,,,,,,,,,,,,,,,,,,,,,,,,,,,,,,,,,,,,,,,,,,,,,,,,,,,,,,,,,,,,,704497,2022_Apr_12_1421,palt,2021.1.2,50.96354013137246,
7,csavarhúzó,hering,,,,,,,,,2,0,2,0,0,8,8,6,,,,,,,,,,,,,772.8715143828886,None,773.880991093989,None,773.880991093989,None,,,,,,,,,,,,,,,,,,,,,,,,,,,,,,,,,,,,,,,,,,,,,,,,,,,,,,,,,,,,,704497,2022_Apr_12_1421,palt,2021.1.2,50.96354013137246,
1,bagoly,kirakó,,,,,,,,,2,0,2,0,0,9,9,0,,,,,,,,,,,,,779.8779578373651,None,780.8889224086306,None,780.8889224086306,None,,,,,,,,,,,,,,,,,,,,,,,,,,,,,,,,,,,,,,,,,,,,,,,,,,,,,,,,,,,,,704497,2022_Apr_12_1421,palt,2021.1.2,50.96354013137246,
10,málna,dominó,,,,,,,,,2,0,2,0,,,,,0,0,0,9,,,,,,,,,800.4737043114728,None,,,,,,,,,,,málna,801.4670898028417,None,4,801.4670898028417,None,801.4670898028417,None,801.4670898028417,None, ,809.3001294413698,None,809.3001294413698,None,down,2.1324954375158995,809.3001294413698,None,811.4580771149485,None,4,0.9335398630937561,811.4580771149485,None,7.799577402940486,,,,,,,796.4414833069895,None,786.8871829433483,None,u,7.329621043521911,786.8871829433483,None,794.2447993317037,None,4,2.1749050493817776,794.2447993317037,None,,,,,,,,,704497,2022_Apr_12_1421,palt,2021.1.2,50.96354013137246,
9,szilva,kecske,,,,,,,,,2,0,2,0,,,,,0,1,1,8,,,,,,,,,812.421642580186,None,,,,,,,,,,,szilva,813.4485954277334,None,4,813.4485954277334,None,813.4485954277334,None,813.4485954277334,None, kirakó,821.0254491260275,None,821.0254491260275,None,down,2.9030303331674077,821.0254491260275,None,823.9505578853423,None,4,4.012923607835546,823.9505578853423,None,7.5367915714741684,,,,,,,,,,,,,,,,,,,,,,,,,,,,,704497,2022_Apr_12_1421,palt,2021.1.2,50.96354013137246,
1,bagoly,kirakó,,,,,,,,,2,0,2,0,,,,,0,2,2,0,,,,,,,,,828.00974044553,None,,,,,,,,,,,bagoly,829.0325264139101,None,4,829.0325264139101,None,829.0325264139101,None,829.0325264139101,None, kirakó,833.292723729508,None,833.292723729508,None,down,3.3396961331600323,833.292723729508,None,836.6725827560294,None,4,4.8429738417617045,836.6725827560294,None,4.229926017520484,,,,,,,,,,,,,,,,,,,,,,,,,,,,,704497,2022_Apr_12_1421,palt,2021.1.2,50.96354013137246,
2,kötény,tisztás,,,,,,,,,2,0,2,0,,,,,0,3,3,1,,,,,,,,,841.5504314296995,None,,,,,,,,,,,tisztás,842.56770603318,None,4,842.56770603318,None,842.56770603318,None,842.56770603318,None, ,849.4026963110664,None,849.4026963110664,None,down,1.997484570951201,849.4026963110664,None,851.4558751814766,None,4,1.192405755398795,851.4558751814766,None,6.807675106625538,,,,,,,,,,,,,,,,,,,,,,,,,,,,,704497,2022_Apr_12_1421,palt,2021.1.2,50.96354013137246,
7,csavarhúzó,hering,,,,,,,,,2,0,2,0,,,,,0,4,4,6,,,,,,,,,852.6842439841712,None,,,,,,,,,,,hering,853.7016492108814,None,4,853.7016492108814,None,853.7016492108814,None,853.7016492108814,None, csavarhúzó,865.5796589864767,None,865.5796589864767,None,down,4.364888677955605,865.5796589864767,None,869.989345814276,None,4,3.051722422009334,869.989345814276,None,11.82649914972717,,,,,,,,,,,,,,,,,,,,,,,,,,,,,704497,2022_Apr_12_1421,palt,2021.1.2,50.96354013137246,
5,karton,hentes,,,,,,,,,2,0,2,0,,,,,0,5,5,4,,,,,,,,,873.0852023850894,None,,,,,,,,,,,karton,874.0998747883714,None,4,874.0998747883714,None,874.0998747883714,None,874.0998747883714,None, ,887.6566286906018,None,887.6566286906018,None,down,1.8713327544392087,887.6566286906018,None,889.5597700534854,None,4,1.3791533503681421,889.5597700534854,None,13.51209726074012,,,,,,,,,,,,,,,,,,,,,,,,,,,,,704497,2022_Apr_12_1421,palt,2021.1.2,50.96354013137246,
4,mocsár,ananász,,,,,,,,,2,0,2,0,,,,,0,6,6,3,,,,,,,,,890.9853157784091,None,,,,,,,,,,,ananász,892.001675086678,None,4,892.001675086678,None,892.001675086678,None,892.001675086678,None,,898.9498027590453,None,898.9498027590453,None,down,2.3864953056327067,898.9498027590453,None,901.3712294999277,None,4,5.38761151174549,901.3712294999277,None,6.901112349587493,,,,,,,,,,,,,,,,,,,,,,,,,,,,,704497,2022_Apr_12_1421,palt,2021.1.2,50.96354013137246,
6,menta,triatlon,,,,,,,,,2,0,2,0,,,,,0,7,7,5,,,,,,,,,906.7910464658053,None,,,,,,,,,,,menta,907.8051879791892,None,4,907.8051879791892,None,907.8051879791892,None,907.8051879791892,None, triatlon,914.0560177473235,None,914.0560177473235,None,down,3.8880774010904133,914.0560177473235,None,917.9946889240528,None,4,1.296129884198308,917.9946889240528,None,6.2248363788821734,,,,,,,,,,,,,,,,,,,,,,,,,,,,,704497,2022_Apr_12_1421,palt,2021.1.2,50.96354013137246,
8,szalvéta,puska,,,,,,,,,2,0,2,0,,,,,0,8,8,7,,,,,,,,,919.3178711782093,None,,,,,,,,,,,puska,920.3377691304195,None,4,920.3377691304195,None,920.3377691304195,None,920.3377691304195,None, ,930.5255234568031,None,930.5255234568031,None,down,2.18610660842387,930.5255234568031,None,932.7588192411931,None,4,1.072764570999425,932.7588192411931,None,10.15685634809779,,,,,,,,,,,,,,,,,,,,,,,,,,,,,704497,2022_Apr_12_1421,palt,2021.1.2,50.96354013137246,
3,fogó,limonádé,,,,,,,,,2,0,2,0,,,,,0,9,9,2,,,,,,,,,933.8604770358652,None,,,,,,,,,,,limonádé,934.8806259711273,None,4,934.8806259711273,None,934.8806259711273,None,934.8806259711273,None, ,943.9035960559268,None,943.9035960559268,None,down,1.6079003382474184,943.9035960559268,None,945.5341057102196,None,4,1.6616903385147452,945.5341057102196,None,8.9958265897003,,,,,,,,,,,,,,,,,,,,,,,,,,,,,704497,2022_Apr_12_1421,palt,2021.1.2,50.96354013137246,
,,,,,,,,,,,2,0,2,0,,,,,,,,,,,,,,,,,,,,,,,,,,,,,,,,,,,,,,,,,,,,,,,,,,,,,,,,,,,,,,,,,,,,,,,,,,,4,11.19747517851647,947.2580171527225,None,947.2580171527225,None,,,704497,2022_Apr_12_1421,palt,2021.1.2,50.96354013137246,
6,menta,triatlon,,,,,,,,,3,0,3,0,0,0,0,5,,,,,,,,,,,,,962.527320769499,None,963.5151423357311,None,963.5151423357311,None,,,,,,,,,,,,,,,,,,,,,,,,,,,,,,,,,,,,,,,958.4950185920461,None,,,,,,,,,,,,,,,,,,,,,704497,2022_Apr_12_1421,palt,2021.1.2,50.96354013137246,
3,fogó,limonádé,,,,,,,,,3,0,3,0,0,1,1,2,,,,,,,,,,,,,969.5104818875552,None,970.5108532305458,None,970.5108532305458,None,,,,,,,,,,,,,,,,,,,,,,,,,,,,,,,,,,,,,,,,,,,,,,,,,,,,,,,,,,,,,704497,2022_Apr_12_1421,palt,2021.1.2,50.96354013137246,
8,szalvéta,puska,,,,,,,,,3,0,3,0,0,2,2,7,,,,,,,,,,,,,976.4962352535804,None,977.5157108575222,None,977.5157108575222,None,,,,,,,,,,,,,,,,,,,,,,,,,,,,,,,,,,,,,,,,,,,,,,,,,,,,,,,,,,,,,704497,2022_Apr_12_1421,palt,2021.1.2,50.96354013137246,
1,bagoly,kirakó,,,,,,,,,3,0,3,0,0,3,3,0,,,,,,,,,,,,,983.5013348444481,None,984.5171778801596,None,984.5171778801596,None,,,,,,,,,,,,,,,,,,,,,,,,,,,,,,,,,,,,,,,,,,,,,,,,,,,,,,,,,,,,,704497,2022_Apr_12_1421,palt,2021.1.2,50.96354013137246,
4,mocsár,ananász,,,,,,,,,3,0,3,0,0,4,4,3,,,,,,,,,,,,,990.5028749538469,None,991.5222280208254,None,991.5222280208254,None,,,,,,,,,,,,,,,,,,,,,,,,,,,,,,,,,,,,,,,,,,,,,,,,,,,,,,,,,,,,,704497,2022_Apr_12_1421,palt,2021.1.2,50.96354013137246,
9,szilva,kecske,,,,,,,,,3,0,3,0,0,5,5,8,,,,,,,,,,,,,997.5030550272204,None,998.5216579439584,None,998.5216579439584,None,,,,,,,,,,,,,,,,,,,,,,,,,,,,,,,,,,,,,,,,,,,,,,,,,,,,,,,,,,,,,704497,2022_Apr_12_1421,palt,2021.1.2,50.96354013137246,
2,kötény,tisztás,,,,,,,,,3,0,3,0,0,6,6,1,,,,,,,,,,,,,1004.5120761122671,None,1005.5215742829023,None,1005.5215742829023,None,,,,,,,,,,,,,,,,,,,,,,,,,,,,,,,,,,,,,,,,,,,,,,,,,,,,,,,,,,,,,704497,2022_Apr_12_1421,palt,2021.1.2,50.96354013137246,
10,málna,dominó,,,,,,,,,3,0,3,0,0,7,7,9,,,,,,,,,,,,,1011.5030469410121,None,1012.5088643372874,None,1012.5088643372874,None,,,,,,,,,,,,,,,,,,,,,,,,,,,,,,,,,,,,,,,,,,,,,,,,,,,,,,,,,,,,,704497,2022_Apr_12_1421,palt,2021.1.2,50.96354013137246,
7,csavarhúzó,hering,,,,,,,,,3,0,3,0,0,8,8,6,,,,,,,,,,,,,1018.5008394094184,None,1019.5160427025985,None,1019.5160427025985,None,,,,,,,,,,,,,,,,,,,,,,,,,,,,,,,,,,,,,,,,,,,,,,,,,,,,,,,,,,,,,704497,2022_Apr_12_1421,palt,2021.1.2,50.96354013137246,
5,karton,hentes,,,,,,,,,3,0,3,0,0,9,9,4,,,,,,,,,,,,,1025.5082031352213,None,1026.5050495186588,None,1026.5050495186588,None,,,,,,,,,,,,,,,,,,,,,,,,,,,,,,,,,,,,,,,,,,,,,,,,,,,,,,,,,,,,,704497,2022_Apr_12_1421,palt,2021.1.2,50.96354013137246,
2,kötény,tisztás,,,,,,,,,3,0,3,0,,,,,0,0,0,1,,,,,,,,,1040.1859159608139,None,,,,,,,,,,,tisztás,1041.182123223669,None,4,1041.182123223669,None,1041.182123223669,None,1041.182123223669,None, ,1051.132705367636,None,1051.132705367636,None,down,2.1059524979791604,1051.132705367636,None,1053.2731025740504,None,4,0.7675355388200842,1053.2731025740504,None,9.907493913546205,,,,,,,1036.1695047142566,None,1032.5011410867446,None,u,2.0016508280532435,1032.5011410867446,None,1034.5238275326556,None,4,1.6150177460513078,1034.5238275326556,None,,,,,,,,,704497,2022_Apr_12_1421,palt,2021.1.2,50.96354013137246,
4,mocsár,ananász,,,,,,,,,3,0,3,0,,,,,0,1,1,3,,,,,,,,,1054.0751002377365,None,,,,,,,,,,,ananász,1055.0975285473978,None,4,1055.0975285473978,None,1055.0975285473978,None,1055.0975285473978,None, ,1065.6482467260212,None,1065.6482467260212,None,down,2.0223916107206605,1065.6482467260212,None,1067.688446318265,None,4,0.7713855013134889,1067.688446318265,None,10.506009598902892,,,,,,,,,,,,,,,,,,,,,,,,,,,,,704497,2022_Apr_12_1421,palt,2021.1.2,50.96354013137246,
9,szilva,kecske,,,,,,,,,3,0,3,0,,,,,0,2,2,8,,,,,,,,,1068.4888721497846,None,,,,,,,,,,,szilva,1069.5042468081228,None,4,1069.5042468081228,None,1069.5042468081228,None,1069.5042468081228,None, kirakó,1075.469011518464,None,1075.469011518464,None,down,2.9053849714109674,1075.469011518464,None,1078.4096230713185,None,4,1.6687934399815276,1078.4096230713185,None,5.925516490242444,,,,,,,,,,,,,,,,,,,,,,,,,,,,,704497,2022_Apr_12_1421,palt,2021.1.2,50.96354013137246,
10,málna,dominó,,,,,,,,,3,0,3,0,,,,,0,3,3,9,,,,,,,,,1080.103241134144,None,,,,,,,,,,,málna,1081.1169733615825,None,4,1081.1169733615825,None,1081.1169733615825,None,1081.1169733615825,None, ,1084.2129568234668,None,1084.2129568234668,None,down,1.5696731559582986,1084.2129568234668,None,1085.815944486414,None,4,2.674350833927747,1085.815944486414,None,3.0623837609309703,,,,,,,,,,,,,,,,,,,,,,,,,,,,,704497,2022_Apr_12_1421,palt,2021.1.2,50.96354013137246,
8,szalvéta,puska,,,,,,,,,3,0,3,0,,,,,0,4,4,7,,,,,,,,,1088.527824912686,None,,,,,,,,,,,puska,1089.5540437824093,None,4,1089.5540437824093,None,1089.5540437824093,None,1089.5540437824093,None, ,1097.0824888441712,None,1097.0824888441712,None,down,1.9157735566259362,1097.0824888441712,None,1099.031646262505,None,4,0.9816210086573847,1099.031646262505,None,7.481115932459943,,,,,,,,,,,,,,,,,,,,,,,,,,,,,704497,2022_Apr_12_1421,palt,2021.1.2,50.96354013137246,
5,karton,hentes,,,,,,,,,3,0,3,0,,,,,0,5,5,4,,,,,,,,,1100.0441602733918,None,,,,,,,,,,,karton,1101.066046807915,None,4,1101.066046807915,None,1101.066046807915,None,1101.066046807915,None, ,1108.2680931753712,None,1108.2680931753712,None,down,1.5784715595655143,1108.2680931753712,None,1109.8838047793251,None,4,1.31535139499465,1109.8838047793251,None,7.159971399756614,,,,,,,,,,,,,,,,,,,,,,,,,,,,,704497,2022_Apr_12_1421,palt,2021.1.2,50.96354013137246,
1,bagoly,kirakó,,,,,,,,,3,0,3,0,,,,,0,6,6,0,,,,,,,,,1111.230211833492,None,,,,,,,,,,,bagoly,1112.2504372766125,None,4,1112.2504372766125,None,1112.2504372766125,None,1112.2504372766125,None, kirakó,1117.0256245342898,None,1117.0256245342898,None,down,2.852481653681025,1117.0256245342898,None,1119.9204234305653,None,4,1.917578644468449,1119.9204234305653,None,4.738539993704762,,,,,,,,,,,,,,,,,,,,,,,,,,,,,704497,2022_Apr_12_1421,palt,2021.1.2,50.96354013137246,
3,fogó,limonádé,,,,,,,,,3,0,3,0,,,,,0,7,7,2,,,,,,,,,1121.8820765103446,None,,,,,,,,,,,limonádé,1122.8969914995832,None,4,1122.8969914995832,None,1122.8969914995832,None,1122.8969914995832,None, ,1130.3150186169078,None,1130.3150186169078,None,down,2.01086753688287,1130.3150186169078,None,1132.37744000979,None,4,1.7855742878746241,1132.37744000979,None,7.381328537187073,,,,,,,,,,,,,,,,,,,,,,,,,,,,,704497,2022_Apr_12_1421,palt,2021.1.2,50.96354013137246,
6,menta,triatlon,,,,,,,,,3,0,3,0,,,,,0,8,8,5,,,,,,,,,1134.1864169939654,None,,,,,,,,,,,menta,1135.1996522313566,None,4,1135.1996522313566,None,1135.1996522313566,None,1135.1996522313566,None, triatlon,1139.4522342160926,None,1139.4522342160926,None,down,3.2095637310412712,1139.4522342160926,None,1142.7112521910458,None,4,4.853595993714407,1142.7112521910458,None,4.207171149901114,,,,,,,,,,,,,,,,,,,,,,,,,,,,,704497,2022_Apr_12_1421,palt,2021.1.2,50.96354013137246,
7,csavarhúzó,hering,,,,,,,,,3,0,3,0,,,,,0,9,9,6,,,,,,,,,1147.5932126956177,None,,,,,,,,,,,hering,1148.6157576330588,None,4,1148.6157576330588,None,1148.6157576330588,None,1148.6157576330588,None, csavarhúzó,1154.9410640688147,None,1154.9410640688147,None,down,3.784651528520044,1154.9410640688147,None,1158.7533759869984,None,4,1.5816481907386333,1158.7533759869984,None,6.291358406364452,,,,,,,,,,,,,,,,,,,,,,,,,,,,,704497,2022_Apr_12_1421,palt,2021.1.2,50.96354013137246,
,,,,,,,,,,,3,0,3,0,,,,,,,,,,,,,,,,,,,,,,,,,,,,,,,,,,,,,,,,,,,,,,,,,,,,,,,,,,,,,,,,,,,,,,,,,,,4,3.153338852687739,1160.3943958305172,None,1160.3943958305172,None,,,704497,2022_Apr_12_1421,palt,2021.1.2,50.96354013137246,
,,,,,,,,,,,,,,,,,,,,,,,,,,,,,,,,,,,,,,,,,,,,,,,,,,,,,,,,,,,,,,,,,,,,,,,,,,,,,,,,,,,,,,,,,,,,,,,1163.5797249200405,None,,,,,,
