itemno,wordA,wordB,enc_gyak.thisRepN,enc_gyak.thisTrialN,enc_gyak.thisN,enc_gyak.thisIndex,rec_gyak.thisRepN,rec_gyak.thisTrialN,rec_gyak.thisN,rec_gyak.thisIndex,repeat_task.thisRepN,repeat_task.thisTrialN,repeat_task.thisN,repeat_task.thisIndex,enc_loop.thisRepN,enc_loop.thisTrialN,enc_loop.thisN,enc_loop.thisIndex,test_loop.thisRepN,test_loop.thisTrialN,test_loop.thisN,test_loop.thisIndex,int.started,int.stopped,int_key.keys,int_key.rt,int_key.started,int_key.stopped,prepare_gyak_text.started,prepare_gyak_text.stopped,fix.started,fix.stopped,word1.started,word1.stopped,word2.started,word2.stopped,gykrec_inst.started,gykrec_inst.stopped,gyakrec_inst.keys,gyakrec_inst.rt,gyakrec_inst.started,gyakrec_inst.stopped,cueword,cueword1.started,cueword1.stopped,cue_resp.keys,cue_resp.rt,cue_resp.started,cue_resp.stopped,cue_cont_text.started,cue_cont_text.stopped,cue_space.started,cue_space.stopped,test_ansbox.text,test_ansbox.started,test_ansbox.stopped,ans_text.started,ans_text.stopped,ans_continue.keys,ans_continue.rt,ans_continue.started,ans_continue.stopped,feedback_text.started,feedback_text.stopped,feedback_cont.keys,feedback_cont.rt,feedback_cont.started,feedback_cont.stopped,main_prep.started,main_prep.stopped,main_prep_resp.keys,main_prep_resp.rt,main_prep_resp.started,main_prep_resp.stopped,preparation.started,preparation.stopped,break_text.started,break_text.stopped,key_resp.keys,key_resp.rt,key_resp.started,key_resp.stopped,test_instruction.started,test_instruction.stopped,test_i_key.keys,test_i_key.rt,test_i_key.started,test_i_key.stopped,rep_routine.keys,rep_routine.rt,rep_routine.started,rep_routine.stopped,encrep_textbox.started,encrep_textbox.stopped,end_text.started,end_text.stopped,Résztvevő kódja,date,expName,psychopyVersion,frameRate,
,,,,,,,,,,,,,,,,,,,,,,,442.77869185898453,None,4,72.45846172701567,442.77869185898453,None,,,,,,,,,,,,,,,,,,,,,,,,,,,,,,,,,,,,,,,,,,,,,,,,,,,,,,,,,,,,,,,,,,,,,806000,2022_May_09_1258,palt,2021.1.2,59.847151510321574,
2,lepke,szintetizátor,0,0,0,1,,,,,,,,,,,,,,,,,,,,,,,515.2706707030302,None,518.287849119748,None,519.2979431307176,None,519.2979431307176,None,,,,,,,,,,,,,,,,,,,,,,,,,,,,,,,,,,,,,,,,,,,,,,,,,,,,,,,,,,,,,806000,2022_May_09_1258,palt,2021.1.2,59.847151510321574,
4,kard,harcsa,0,1,1,3,,,,,,,,,,,,,,,,,,,,,,,,,525.2782943933271,None,526.292581387097,None,526.292581387097,None,,,,,,,,,,,,,,,,,,,,,,,,,,,,,,,,,,,,,,,,,,,,,,,,,,,,,,,,,,,,,806000,2022_May_09_1258,palt,2021.1.2,59.847151510321574,
3,majoránna,szikla,0,2,2,2,,,,,,,,,,,,,,,,,,,,,,,,,532.2817005310208,None,533.2887155824574,None,533.2887155824574,None,,,,,,,,,,,,,,,,,,,,,,,,,,,,,,,,,,,,,,,,,,,,,,,,,,,,,,,,,,,,,806000,2022_May_09_1258,palt,2021.1.2,59.847151510321574,
1,sapka,beton,0,3,3,0,,,,,,,,,,,,,,,,,,,,,,,,,539.2790610230295,None,540.2942707717884,None,540.2942707717884,None,,,,,,,,,,,,,,,,,,,,,,,,,,,,,,,,,,,,,,,,,,,,,,,,,,,,,,,,,,,,,806000,2022_May_09_1258,palt,2021.1.2,59.847151510321574,
,,,,,,,,,,,,,,,,,,,,,,,,,,,,,,,,,,,,,546.2950367796002,None,4,37.84041970875114,546.2950367796002,None,,,,,,,,,,,,,,,,,,,,,,,,,,,,,,,,,,,,,,,,,,,,,,,,,,,,,,,806000,2022_May_09_1258,palt,2021.1.2,59.847151510321574,
3,majoránna,szikla,,,,,0,0,0,2,,,,,,,,,,,,,,,,,,,,,584.1757976992521,None,,,,,,,,,,,szikla,585.1810170020908,None,4,13.821135159465484,585.1810170020908,None,585.1810170020908,None,585.1810170020908,None, ,599.0590538202086,None,599.0590538202086,None,down,1.5041379348840564,599.0590538202086,None,600.6218677030411,None,4,1.8883982942206785,600.6218677030411,None,,,,,,,,,,,,,,,,,,,,,,,,,,,,,806000,2022_May_09_1258,palt,2021.1.2,59.847151510321574,
4,kard,harcsa,,,,,0,1,1,3,,,,,,,,,,,,,,,,,,,,,602.5378317034338,None,,,,,,,,,,,kard,603.5608153581852,None,None,,603.5608153581852,None,603.5608153581852,None,603.5608153581852,None, ,618.5458149166079,None,618.5458149166079,None,down,1.4409934526775032,618.5458149166079,None,620.030010213377,None,4,4.274809882044792,620.030010213377,None,,,,,,,,,,,,,,,,,,,,,,,,,,,,,806000,2022_May_09_1258,palt,2021.1.2,59.847151510321574,
1,sapka,beton,,,,,0,2,2,0,,,,,,,,,,,,,,,,,,,,,624.3344347092789,None,,,,,,,,,,,beton,625.3393423840171,None,None,,625.3393423840171,None,625.3393423840171,None,625.3393423840171,None,sátga,640.3428723021643,None,640.3428723021643,None,down,2.3957604282768443,640.3428723021643,None,642.7690307684243,None,4,4.167817285167985,642.7690307684243,None,,,,,,,,,,,,,,,,,,,,,,,,,,,,,806000,2022_May_09_1258,palt,2021.1.2,59.847151510321574,
2,lepke,szintetizátor,,,,,0,3,3,1,,,,,,,,,,,,,,,,,,,,,646.9649328289088,None,,,,,,,,,,,lepke,647.9967848198721,None,4,4.262563087628223,647.9967848198721,None,647.9967848198721,None,647.9967848198721,None, szintetizátor,652.285952294129,None,652.285952294129,None,down,5.796466163243167,652.285952294129,None,658.1198943698546,None,4,10.671320456895046,658.1198943698546,None,,,,,,,,,,,,,,,,,,,,,,,,,,,,,806000,2022_May_09_1258,palt,2021.1.2,59.847151510321574,
,,,,,,,,,,,,,,,,,,,,,,,,,,,,,,,,,,,,,,,,,,,,,,,,,,,,,,,,,,,,,,,,,,,,,668.8313358454034,None,4,57.8252040509833,668.8313358454034,None,,,,,,,,,,,,,,,,,,,,,,,806000,2022_May_09_1258,palt,2021.1.2,59.847151510321574,
4,mocsár,ananász,,,,,,,,,0,0,0,0,0,0,0,3,,,,,,,,,,,,,730.7066582031548,None,731.7103202987928,None,731.7103202987928,None,,,,,,,,,,,,,,,,,,,,,,,,,,,,,,,,,,,,,,,726.691817929619,None,,,,,,,,,,,,,,,,,,,,,806000,2022_May_09_1258,palt,2021.1.2,59.847151510321574,
2,kötény,tisztás,,,,,,,,,0,0,0,0,0,1,1,1,,,,,,,,,,,,,737.6953534458298,None,738.7057814771542,None,738.7057814771542,None,,,,,,,,,,,,,,,,,,,,,,,,,,,,,,,,,,,,,,,,,,,,,,,,,,,,,,,,,,,,,806000,2022_May_09_1258,palt,2021.1.2,59.847151510321574,
3,fogó,limonádé,,,,,,,,,0,0,0,0,0,2,2,2,,,,,,,,,,,,,744.6939433446387,None,745.703505224199,None,745.703505224199,None,,,,,,,,,,,,,,,,,,,,,,,,,,,,,,,,,,,,,,,,,,,,,,,,,,,,,,,,,,,,,806000,2022_May_09_1258,palt,2021.1.2,59.847151510321574,
8,szalvéta,puska,,,,,,,,,0,0,0,0,0,3,3,7,,,,,,,,,,,,,751.6989318809938,None,752.718209899147,None,752.718209899147,None,,,,,,,,,,,,,,,,,,,,,,,,,,,,,,,,,,,,,,,,,,,,,,,,,,,,,,,,,,,,,806000,2022_May_09_1258,palt,2021.1.2,59.847151510321574,
5,karton,hentes,,,,,,,,,0,0,0,0,0,4,4,4,,,,,,,,,,,,,758.6945554044796,None,759.7060931052547,None,759.7060931052547,None,,,,,,,,,,,,,,,,,,,,,,,,,,,,,,,,,,,,,,,,,,,,,,,,,,,,,,,,,,,,,806000,2022_May_09_1258,palt,2021.1.2,59.847151510321574,
10,málna,dominó,,,,,,,,,0,0,0,0,0,5,5,9,,,,,,,,,,,,,765.7056539647747,None,766.704840373015,None,766.704840373015,None,,,,,,,,,,,,,,,,,,,,,,,,,,,,,,,,,,,,,,,,,,,,,,,,,,,,,,,,,,,,,806000,2022_May_09_1258,palt,2021.1.2,59.847151510321574,
9,szilva,kecske,,,,,,,,,0,0,0,0,0,6,6,8,,,,,,,,,,,,,772.6947161945282,None,773.7138741645031,None,773.7138741645031,None,,,,,,,,,,,,,,,,,,,,,,,,,,,,,,,,,,,,,,,,,,,,,,,,,,,,,,,,,,,,,806000,2022_May_09_1258,palt,2021.1.2,59.847151510321574,
6,menta,triatlon,,,,,,,,,0,0,0,0,0,7,7,5,,,,,,,,,,,,,779.6942754990887,None,780.709791588597,None,780.709791588597,None,,,,,,,,,,,,,,,,,,,,,,,,,,,,,,,,,,,,,,,,,,,,,,,,,,,,,,,,,,,,,806000,2022_May_09_1258,palt,2021.1.2,59.847151510321574,
7,csavarhúzó,hering,,,,,,,,,0,0,0,0,0,8,8,6,,,,,,,,,,,,,786.695357488934,None,787.713336746092,None,787.713336746092,None,,,,,,,,,,,,,,,,,,,,,,,,,,,,,,,,,,,,,,,,,,,,,,,,,,,,,,,,,,,,,806000,2022_May_09_1258,palt,2021.1.2,59.847151510321574,
1,bagoly,kirakó,,,,,,,,,0,0,0,0,0,9,9,0,,,,,,,,,,,,,793.7135168185923,None,794.7071041857125,None,794.7071041857125,None,,,,,,,,,,,,,,,,,,,,,,,,,,,,,,,,,,,,,,,,,,,,,,,,,,,,,,,,,,,,,806000,2022_May_09_1258,palt,2021.1.2,59.847151510321574,
5,karton,hentes,,,,,,,,,0,0,0,0,,,,,0,0,0,4,,,,,,,,,818.6435964485863,None,,,,,,,,,,,hentes,819.6421319212532,None,4,9.720059451879933,819.6421319212532,None,819.6421319212532,None,819.6421319212532,None, kivágó,829.3936686018715,None,829.3936686018715,None,down,2.9424324774881825,829.3936686018715,None,832.3680504153017,None,4,4.530087653896771,832.3680504153017,None,,,,,,,814.6267097555101,None,800.6931350399973,None,u,3.4193909756140783,800.6931350399973,None,804.1634053540183,None,4,10.434012922924012,804.1634053540183,None,,,,,,,,,806000,2022_May_09_1258,palt,2021.1.2,59.847151510321574,
7,csavarhúzó,hering,,,,,,,,,0,0,0,0,,,,,0,1,1,6,,,,,,,,,836.9285923992284,None,,,,,,,,,,,hering,837.9545757069718,None,None,,837.9545757069718,None,837.9545757069718,None,837.9545757069718,None, csóka,852.9437315495452,None,852.9437315495452,None,down,5.4400312000652775,852.9437315495452,None,858.4050775462529,None,4,4.135609503369778,858.4050775462529,None,,,,,,,,,,,,,,,,,,,,,,,,,,,,,806000,2022_May_09_1258,palt,2021.1.2,59.847151510321574,
6,menta,triatlon,,,,,,,,,0,0,0,0,,,,,0,2,2,5,,,,,,,,,862.560627199593,None,,,,,,,,,,,menta,863.5900713821175,None,4,9.232506534201093,863.5900713821175,None,863.5900713821175,None,863.5900713821175,None, tiszavirág,872.8508166394895,None,872.8508166394895,None,down,3.2926081337500364,872.8508166394895,None,876.1858279539738,None,4,0.9918861642945558,876.1858279539738,None,,,,,,,,,,,,,,,,,,,,,,,,,,,,,806000,2022_May_09_1258,palt,2021.1.2,59.847151510321574,
10,málna,dominó,,,,,,,,,0,0,0,0,,,,,0,3,3,9,,,,,,,,,877.214526655036,None,,,,,,,,,,,dominó,878.2359789162874,None,4,11.492533678887412,878.2359789162874,None,878.2359789162874,None,878.2359789162874,None, multi,889.754451739951,None,889.754451739951,None,down,2.1970832613296807,889.754451739951,None,891.9739936778788,None,4,0.7565858631860465,891.9739936778788,None,,,,,,,,,,,,,,,,,,,,,,,,,,,,,806000,2022_May_09_1258,palt,2021.1.2,59.847151510321574,
1,bagoly,kirakó,,,,,,,,,0,0,0,0,,,,,0,4,4,0,,,,,,,,,892.7606902093394,None,,,,,,,,,,,kirakó,893.7782234839397,None,4,12.374764723936096,893.7782234839397,None,893.7782234839397,None,893.7782234839397,None, ,906.1929353742162,None,906.1929353742162,None,down,1.0222717620199546,906.1929353742162,None,907.2447007686133,None,4,0.8303424923215061,907.2447007686133,None,,,,,,,,,,,,,,,,,,,,,,,,,,,,,806000,2022_May_09_1258,palt,2021.1.2,59.847151510321574,
8,szalvéta,puska,,,,,,,,,0,0,0,0,,,,,0,5,5,7,,,,,,,,,908.1201699211961,None,,,,,,,,,,,puska,909.1366802969715,None,4,8.925217984127812,909.1366802969715,None,909.1366802969715,None,909.1366802969715,None,szines,918.09152129211,None,918.09152129211,None,down,1.7313287544529885,918.09152129211,None,919.8651350450236,None,4,1.4817321293521672,919.8651350450236,None,,,,,,,,,,,,,,,,,,,,,,,,,,,,,806000,2022_May_09_1258,palt,2021.1.2,59.847151510321574,
9,szilva,kecske,,,,,,,,,0,0,0,0,,,,,0,6,6,8,,,,,,,,,921.3890495407395,None,,,,,,,,,,,szilva,922.4049245312344,None,4,7.222045847331174,922.4049245312344,None,922.4049245312344,None,922.4049245312344,None,kerek,929.6529132553842,None,929.6529132553842,None,down,1.9137788723455742,929.6529132553842,None,931.6060592677677,None,4,1.1877449949970469,931.6060592677677,None,,,,,,,,,,,,,,,,,,,,,,,,,,,,,806000,2022_May_09_1258,palt,2021.1.2,59.847151510321574,
3,fogó,limonádé,,,,,,,,,0,0,0,0,,,,,0,7,7,2,,,,,,,,,932.81300795055,None,,,,,,,,,,,limonádé,933.8405220297864,None,4,11.584421025007032,933.8405220297864,None,933.8405220297864,None,933.8405220297864,None, ,945.4646345741348,None,945.4646345741348,None,down,0.8862741230987012,945.4646345741348,None,946.3891114309663,None,4,0.9267204541247338,946.3891114309663,None,,,,,,,,,,,,,,,,,,,,,,,,,,,,,806000,2022_May_09_1258,palt,2021.1.2,59.847151510321574,
2,kötény,tisztás,,,,,,,,,0,0,0,0,,,,,0,8,8,1,,,,,,,,,947.3515969535802,None,,,,,,,,,,,kötény,948.3636985082412,None,4,6.185818934813142,948.3636985082412,None,948.3636985082412,None,948.3636985082412,None,,954.5842826273292,None,954.5842826273292,None,down,1.6543958210386336,954.5842826273292,None,956.2643734534504,None,4,0.5621296695899218,956.2643734534504,None,,,,,,,,,,,,,,,,,,,,,,,,,,,,,806000,2022_May_09_1258,palt,2021.1.2,59.847151510321574,
4,mocsár,ananász,,,,,,,,,0,0,0,0,,,,,0,9,9,3,,,,,,,,,956.8691747019766,None,,,,,,,,,,,mocsár,957.8901321525918,None,4,4.891273233690299,957.8901321525918,None,957.8901321525918,None,957.8901321525918,None, ,962.824006055831,None,962.824006055831,None,down,2.5502937140408903,962.824006055831,None,965.4146870097611,None,4,0.4127174087334424,965.4146870097611,None,,,,,,,,,,,,,,,,,,,,,,,,,,,,,806000,2022_May_09_1258,palt,2021.1.2,59.847151510321574,
,,,,,,,,,,,0,0,0,0,,,,,,,,,,,,,,,,,,,,,,,,,,,,,,,,,,,,,,,,,,,,,,,,,,,,,,,,,,,,,,,,,,,,,,,,,,,4,24.62484092032537,965.8852692627115,None,965.8852692627115,None,,,806000,2022_May_09_1258,palt,2021.1.2,59.847151510321574,
6,menta,triatlon,,,,,,,,,1,0,1,0,0,0,0,5,,,,,,,,,,,,,994.5816076647025,None,995.5682378275087,None,995.5682378275087,None,,,,,,,,,,,,,,,,,,,,,,,,,,,,,,,,,,,,,,,990.5429219387006,None,,,,,,,,,,,,,,,,,,,,,806000,2022_May_09_1258,palt,2021.1.2,59.847151510321574,
7,csavarhúzó,hering,,,,,,,,,1,0,1,0,0,1,1,6,,,,,,,,,,,,,1001.5559838799527,None,1002.5750267775729,None,1002.5750267775729,None,,,,,,,,,,,,,,,,,,,,,,,,,,,,,,,,,,,,,,,,,,,,,,,,,,,,,,,,,,,,,806000,2022_May_09_1258,palt,2021.1.2,59.847151510321574,
3,fogó,limonádé,,,,,,,,,1,0,1,0,0,2,2,2,,,,,,,,,,,,,1008.5537045168458,None,1009.5623187612509,None,1009.5623187612509,None,,,,,,,,,,,,,,,,,,,,,,,,,,,,,,,,,,,,,,,,,,,,,,,,,,,,,,,,,,,,,806000,2022_May_09_1258,palt,2021.1.2,59.847151510321574,
4,mocsár,ananász,,,,,,,,,1,0,1,0,0,3,3,3,,,,,,,,,,,,,1015.5575718765613,None,1016.5703349410323,None,1016.5703349410323,None,,,,,,,,,,,,,,,,,,,,,,,,,,,,,,,,,,,,,,,,,,,,,,,,,,,,,,,,,,,,,806000,2022_May_09_1258,palt,2021.1.2,59.847151510321574,
1,bagoly,kirakó,,,,,,,,,1,0,1,0,0,4,4,0,,,,,,,,,,,,,1022.5547386119142,None,1023.5673191157402,None,1023.5673191157402,None,,,,,,,,,,,,,,,,,,,,,,,,,,,,,,,,,,,,,,,,,,,,,,,,,,,,,,,,,,,,,806000,2022_May_09_1258,palt,2021.1.2,59.847151510321574,
9,szilva,kecske,,,,,,,,,1,0,1,0,0,5,5,8,,,,,,,,,,,,,1029.555661055725,None,1030.5726407394977,None,1030.5726407394977,None,,,,,,,,,,,,,,,,,,,,,,,,,,,,,,,,,,,,,,,,,,,,,,,,,,,,,,,,,,,,,806000,2022_May_09_1258,palt,2021.1.2,59.847151510321574,
8,szalvéta,puska,,,,,,,,,1,0,1,0,0,6,6,7,,,,,,,,,,,,,1036.5557400512043,None,1037.5748121833894,None,1037.5748121833894,None,,,,,,,,,,,,,,,,,,,,,,,,,,,,,,,,,,,,,,,,,,,,,,,,,,,,,,,,,,,,,806000,2022_May_09_1258,palt,2021.1.2,59.847151510321574,
5,karton,hentes,,,,,,,,,1,0,1,0,0,7,7,4,,,,,,,,,,,,,1043.555536342319,None,1044.5713233180577,None,1044.5713233180577,None,,,,,,,,,,,,,,,,,,,,,,,,,,,,,,,,,,,,,,,,,,,,,,,,,,,,,,,,,,,,,806000,2022_May_09_1258,palt,2021.1.2,59.847151510321574,
10,málna,dominó,,,,,,,,,1,0,1,0,0,8,8,9,,,,,,,,,,,,,1050.5559534013737,None,1051.567548949155,None,1051.567548949155,None,,,,,,,,,,,,,,,,,,,,,,,,,,,,,,,,,,,,,,,,,,,,,,,,,,,,,,,,,,,,,806000,2022_May_09_1258,palt,2021.1.2,59.847151510321574,
2,kötény,tisztás,,,,,,,,,1,0,1,0,0,9,9,1,,,,,,,,,,,,,1057.5560212006094,None,1058.5720013112295,None,1058.5720013112295,None,,,,,,,,,,,,,,,,,,,,,,,,,,,,,,,,,,,,,,,,,,,,,,,,,,,,,,,,,,,,,806000,2022_May_09_1258,palt,2021.1.2,59.847151510321574,
10,málna,dominó,,,,,,,,,1,0,1,0,,,,,0,0,0,9,,,,,,,,,1075.9891741919564,None,,,,,,,,,,,dominó,1076.9724989830283,None,4,3.0631926881615072,1076.9724989830283,None,1076.9724989830283,None,1076.9724989830283,None, menta,1080.0594142761547,None,1080.0594142761547,None,down,1.7132415781961754,1080.0594142761547,None,1081.7999749329174,None,4,1.9650734036695212,1081.7999749329174,None,,,,,,,1071.9615266910987,None,1064.55262688105,None,u,4.564564535627142,1064.55262688105,None,1069.1392529386794,None,4,2.786691866465844,1069.1392529386794,None,,,,,,,,,806000,2022_May_09_1258,palt,2021.1.2,59.847151510321574,
2,kötény,tisztás,,,,,,,,,1,0,1,0,,,,,0,1,1,1,,,,,,,,,1083.804304136429,None,,,,,,,,,,,kötény,1084.8110526558012,None,4,3.037651319988072,1084.8110526558012,None,1084.8110526558012,None,1084.8110526558012,None,tisztás,1087.8949169800617,None,1087.8949169800617,None,down,1.8137814225628972,1087.8949169800617,None,1089.7488912636181,None,4,2.386808742536232,1089.7488912636181,None,,,,,,,,,,,,,,,,,,,,,,,,,,,,,806000,2022_May_09_1258,palt,2021.1.2,59.847151510321574,
9,szilva,kecske,,,,,,,,,1,0,1,0,,,,,0,2,2,8,,,,,,,,,1092.1628215957899,None,,,,,,,,,,,szilva,1093.1846769207623,None,4,2.8119240946834907,1093.1846769207623,None,1093.1846769207623,None,1093.1846769207623,None, kötény,1096.0208765891148,None,1096.0208765891148,None,down,2.823748231981881,1096.0208765891148,None,1098.8889111430617,None,4,1.032921229605563,1098.8889111430617,None,,,,,,,,,,,,,,,,,,,,,,,,,,,,,806000,2022_May_09_1258,palt,2021.1.2,59.847151510321574,
4,mocsár,ananász,,,,,,,,,1,0,1,0,,,,,0,3,3,3,,,,,,,,,1099.9589332120959,None,,,,,,,,,,,mocsár,1100.9841047941009,None,4,6.512236220296472,1100.9841047941009,None,1100.9841047941009,None,1100.9841047941009,None, ananász,1107.5355047564954,None,1107.5355047564954,None,down,3.340898658032529,1107.5355047564954,None,1110.9322964807507,None,4,0.7910136058926582,1110.9322964807507,None,,,,,,,,,,,,,,,,,,,,,,,,,,,,,806000,2022_May_09_1258,palt,2021.1.2,59.847151510321574,
6,menta,triatlon,,,,,,,,,1,0,1,0,,,,,0,4,4,5,,,,,,,,,1111.7577400064329,None,,,,,,,,,,,menta,1112.7885090744821,None,4,3.136880273814313,1112.7885090744821,None,1112.7885090744821,None,1112.7885090744821,None, tisztás,1115.976064355811,None,1115.976064355811,None,down,2.5323452465236187,1115.976064355811,None,1118.5532398739597,None,4,2.4943480879301205,1118.5532398739597,None,,,,,,,,,,,,,,,,,,,,,,,,,,,,,806000,2022_May_09_1258,palt,2021.1.2,59.847151510321574,
1,bagoly,kirakó,,,,,,,,,1,0,1,0,,,,,0,5,5,0,,,,,,,,,1121.0763824527385,None,,,,,,,,,,,kirakó,1122.0989838811802,None,4,3.217197574675083,1122.0989838811802,None,1122.0989838811802,None,1122.0989838811802,None,bagoly,1125.345738533535,None,1125.345738533535,None,down,1.658485861029476,1125.345738533535,None,1127.0427148087183,None,4,3.1477026608772576,1127.0427148087183,None,,,,,,,,,,,,,,,,,,,,,,,,,,,,,806000,2022_May_09_1258,palt,2021.1.2,59.847151510321574,
5,karton,hentes,,,,,,,,,1,0,1,0,,,,,0,6,6,4,,,,,,,,,1130.2198977287626,None,,,,,,,,,,,hentes,1131.23953091586,None,4,4.097741412231699,1131.23953091586,None,1131.23953091586,None,1131.23953091586,None, karika,1135.361425676383,None,1135.361425676383,None,down,2.010563007905148,1135.361425676383,None,1137.420793612604,None,4,0.8565372839802876,1137.420793612604,None,,,,,,,,,,,,,,,,,,,,,,,,,,,,,806000,2022_May_09_1258,palt,2021.1.2,59.847151510321574,
7,csavarhúzó,hering,,,,,,,,,1,0,1,0,,,,,0,7,7,6,,,,,,,,,1138.3076524271164,None,,,,,,,,,,,hering,1139.3242763200542,None,4,2.3677375433035195,1139.3242763200542,None,1139.3242763200542,None,1139.3242763200542,None, csavar,1141.738930363208,None,1141.738930363208,None,down,4.833412432577461,1141.738930363208,None,1146.6038775605848,None,4,3.0301790897501633,1146.6038775605848,None,,,,,,,,,,,,,,,,,,,,,,,,,,,,,806000,2022_May_09_1258,palt,2021.1.2,59.847151510321574,
3,fogó,limonádé,,,,,,,,,1,0,1,0,,,,,0,8,8,2,,,,,,,,,1149.6656318459427,None,,,,,,,,,,,limonádé,1150.6854796272237,None,4,11.245279239839874,1150.6854796272237,None,1150.6854796272237,None,1150.6854796272237,None, fekete,1161.9624883217039,None,1161.9624883217039,None,down,1.4253619798691943,1161.9624883217039,None,1163.4086236367002,None,4,0.7420995144639164,1163.4086236367002,None,,,,,,,,,,,,,,,,,,,,,,,,,,,,,806000,2022_May_09_1258,palt,2021.1.2,59.847151510321574,
8,szalvéta,puska,,,,,,,,,1,0,1,0,,,,,0,9,9,7,,,,,,,,,1164.1760091834003,None,,,,,,,,,,,puska,1165.1927465935005,None,4,3.456777007551864,1165.1927465935005,None,1165.1927465935005,None,1165.1927465935005,None, szeder,1168.6758938001003,None,1168.6758938001003,None,down,1.687769875396043,1168.6758938001003,None,1170.3849128498696,None,4,0.9546556355198845,1170.3849128498696,None,,,,,,,,,,,,,,,,,,,,,,,,,,,,,806000,2022_May_09_1258,palt,2021.1.2,59.847151510321574,
,,,,,,,,,,,1,0,1,0,,,,,,,,,,,,,,,,,,,,,,,,,,,,,,,,,,,,,,,,,,,,,,,,,,,,,,,,,,,,,,,,,,,,,,,,,,,4,5.300759912002832,1171.4087670104345,None,1171.4087670104345,None,,,806000,2022_May_09_1258,palt,2021.1.2,59.847151510321574,
3,fogó,limonádé,,,,,,,,,2,0,2,0,0,0,0,2,,,,,,,,,,,,,1180.7731037030462,None,1181.7662525518099,None,1181.7662525518099,None,,,,,,,,,,,,,,,,,,,,,,,,,,,,,,,,,,,,,,,1176.7530354185728,None,,,,,,,,,,,,,,,,,,,,,806000,2022_May_09_1258,palt,2021.1.2,59.847151510321574,
6,menta,triatlon,,,,,,,,,2,0,2,0,0,1,1,5,,,,,,,,,,,,,1187.7553517912747,None,1188.770077303634,None,1188.770077303634,None,,,,,,,,,,,,,,,,,,,,,,,,,,,,,,,,,,,,,,,,,,,,,,,,,,,,,,,,,,,,,806000,2022_May_09_1258,palt,2021.1.2,59.847151510321574,
4,mocsár,ananász,,,,,,,,,2,0,2,0,0,2,2,3,,,,,,,,,,,,,1194.7537578855408,None,1195.7666098977206,None,1195.7666098977206,None,,,,,,,,,,,,,,,,,,,,,,,,,,,,,,,,,,,,,,,,,,,,,,,,,,,,,,,,,,,,,806000,2022_May_09_1258,palt,2021.1.2,59.847151510321574,
1,bagoly,kirakó,,,,,,,,,2,0,2,0,0,3,3,0,,,,,,,,,,,,,1201.753771258751,None,1202.7738861942198,None,1202.7738861942198,None,,,,,,,,,,,,,,,,,,,,,,,,,,,,,,,,,,,,,,,,,,,,,,,,,,,,,,,,,,,,,806000,2022_May_09_1258,palt,2021.1.2,59.847151510321574,
10,málna,dominó,,,,,,,,,2,0,2,0,0,4,4,9,,,,,,,,,,,,,1208.7524342440302,None,1209.7649345083628,None,1209.7649345083628,None,,,,,,,,,,,,,,,,,,,,,,,,,,,,,,,,,,,,,,,,,,,,,,,,,,,,,,,,,,,,,806000,2022_May_09_1258,palt,2021.1.2,59.847151510321574,
7,csavarhúzó,hering,,,,,,,,,2,0,2,0,0,5,5,6,,,,,,,,,,,,,1215.7535320951138,None,1216.7699028293137,None,1216.7699028293137,None,,,,,,,,,,,,,,,,,,,,,,,,,,,,,,,,,,,,,,,,,,,,,,,,,,,,,,,,,,,,,806000,2022_May_09_1258,palt,2021.1.2,59.847151510321574,
8,szalvéta,puska,,,,,,,,,2,0,2,0,0,6,6,7,,,,,,,,,,,,,1222.7683331819717,None,1223.7683415791253,None,1223.7683415791253,None,,,,,,,,,,,,,,,,,,,,,,,,,,,,,,,,,,,,,,,,,,,,,,,,,,,,,,,,,,,,,806000,2022_May_09_1258,palt,2021.1.2,59.847151510321574,
5,karton,hentes,,,,,,,,,2,0,2,0,0,7,7,4,,,,,,,,,,,,,1229.755543992971,None,1230.790204990306,None,1230.790204990306,None,,,,,,,,,,,,,,,,,,,,,,,,,,,,,,,,,,,,,,,,,,,,,,,,,,,,,,,,,,,,,806000,2022_May_09_1258,palt,2021.1.2,59.847151510321574,
2,kötény,tisztás,,,,,,,,,2,0,2,0,0,8,8,1,,,,,,,,,,,,,1236.7513298616977,None,1237.7696366080781,None,1237.7696366080781,None,,,,,,,,,,,,,,,,,,,,,,,,,,,,,,,,,,,,,,,,,,,,,,,,,,,,,,,,,,,,,806000,2022_May_09_1258,palt,2021.1.2,59.847151510321574,
9,szilva,kecske,,,,,,,,,2,0,2,0,0,9,9,8,,,,,,,,,,,,,1243.7550625557778,None,1244.7726735817268,None,1244.7726735817268,None,,,,,,,,,,,,,,,,,,,,,,,,,,,,,,,,,,,,,,,,,,,,,,,,,,,,,,,,,,,,,806000,2022_May_09_1258,palt,2021.1.2,59.847151510321574,
1,bagoly,kirakó,,,,,,,,,2,0,2,0,,,,,0,0,0,0,,,,,,,,,1259.83639093698,None,,,,,,,,,,,kirakó,1260.834555690526,None,4,2.392158667789772,1260.834555690526,None,1260.834555690526,None,1260.834555690526,None, bagoly,1263.2721277661622,None,1263.2721277661622,None,down,3.0583375733112916,1263.2721277661622,None,1266.3712758586043,None,4,1.4521666544023901,1266.3712758586043,None,,,,,,,1255.8109251433052,None,1250.7541842748178,None,u,3.592595506925136,1250.7541842748178,None,1254.3748872602591,None,4,1.3986655353801325,1254.3748872602591,None,,,,,,,,,806000,2022_May_09_1258,palt,2021.1.2,59.847151510321574,
7,csavarhúzó,hering,,,,,,,,,2,0,2,0,,,,,0,1,1,6,,,,,,,,,1267.844179771375,None,,,,,,,,,,,hering,1268.8660425605485,None,4,2.492128127021715,1268.8660425605485,None,1268.8660425605485,None,1268.8660425605485,None,csavarhúzó,1271.3995755389333,None,1271.3995755389333,None,down,3.1385494431015104,1271.3995755389333,None,1274.5726136820158,None,4,0.3919279013061896,1274.5726136820158,None,,,,,,,,,,,,,,,,,,,,,,,,,,,,,806000,2022_May_09_1258,palt,2021.1.2,59.847151510321574,
9,szilva,kecske,,,,,,,,,2,0,2,0,,,,,0,2,2,8,,,,,,,,,1275.0002842594404,None,,,,,,,,,,,szilva,1276.018616819405,None,4,6.743853277293965,1276.018616819405,None,1276.018616819405,None,1276.018616819405,None,kötény,1282.801066874992,None,1282.801066874992,None,down,1.8654622233007103,1282.801066874992,None,1284.7148314409424,None,4,2.627506863907911,1284.7148314409424,None,,,,,,,,,,,,,,,,,,,,,,,,,,,,,806000,2022_May_09_1258,palt,2021.1.2,59.847151510321574,
10,málna,dominó,,,,,,,,,2,0,2,0,,,,,0,3,3,9,,,,,,,,,1287.3719799761893,None,,,,,,,,,,,dominó,1288.3916445748182,None,4,3.390407703933306,1288.3916445748182,None,1288.3916445748182,None,1288.3916445748182,None,málna,1291.8105979650281,None,1291.8105979650281,None,down,1.8156073386780918,1291.8105979650281,None,1293.6581661468372,None,4,0.907835858524777,1293.6581661468372,None,,,,,,,,,,,,,,,,,,,,,,,,,,,,,806000,2022_May_09_1258,palt,2021.1.2,59.847151510321574,
8,szalvéta,puska,,,,,,,,,2,0,2,0,,,,,0,4,4,7,,,,,,,,,1294.5891249907436,None,,,,,,,,,,,puska,1295.6093245197553,None,4,5.780586507637054,1295.6093245197553,None,1295.6093245197553,None,1295.6093245197553,None,szeder,1301.4326364103472,None,1301.4326364103472,None,down,1.9692125825677067,1301.4326364103472,None,1303.4342390242964,None,4,1.1047023485880345,1303.4342390242964,None,,,,,,,,,,,,,,,,,,,,,,,,,,,,,806000,2022_May_09_1258,palt,2021.1.2,59.847151510321574,
4,mocsár,ananász,,,,,,,,,2,0,2,0,,,,,0,5,5,3,,,,,,,,,1304.5637655612081,None,,,,,,,,,,,mocsár,1305.576311543351,None,4,2.7297718584304675,1305.576311543351,None,1305.576311543351,None,1305.576311543351,None,ananász,1308.3429052687716,None,1308.3429052687716,None,down,1.5869271113770083,1308.3429052687716,None,1309.9640169162303,None,4,0.5717730327742174,1309.9640169162303,None,,,,,,,,,,,,,,,,,,,,,,,,,,,,,806000,2022_May_09_1258,palt,2021.1.2,59.847151510321574,
6,menta,triatlon,,,,,,,,,2,0,2,0,,,,,0,6,6,5,,,,,,,,,1310.5612516995752,None,,,,,,,,,,,menta,1311.583083077101,None,4,3.7045993434730917,1311.583083077101,None,1311.583083077101,None,1311.583083077101,None, triatlon,1315.3226146149682,None,1315.3226146149682,None,down,2.1430947958724573,1315.3226146149682,None,1317.4852066882886,None,4,0.3765374581562355,1317.4852066882886,None,,,,,,,,,,,,,,,,,,,,,,,,,,,,,806000,2022_May_09_1258,palt,2021.1.2,59.847151510321574,
5,karton,hentes,,,,,,,,,2,0,2,0,,,,,0,7,7,4,,,,,,,,,1317.888272647746,None,,,,,,,,,,,hentes,1318.9198960493086,None,4,5.435770728858188,1318.9198960493086,None,1318.9198960493086,None,1318.9198960493086,None, karika,1324.3973418938695,None,1324.3973418938695,None,down,1.7249540644697845,1324.3973418938695,None,1326.1622468566056,None,4,0.7296962840482593,1326.1622468566056,None,,,,,,,,,,,,,,,,,,,,,,,,,,,,,806000,2022_May_09_1258,palt,2021.1.2,59.847151510321574,
3,fogó,limonádé,,,,,,,,,2,0,2,0,,,,,0,8,8,2,,,,,,,,,1326.9268887083745,None,,,,,,,,,,,limonádé,1327.94996442087,None,4,10.86331534886267,1327.94996442087,None,1327.94996442087,None,1327.94996442087,None,fogó,1338.8528440876398,None,1338.8528440876398,None,down,2.0685575417010114,1338.8528440876398,None,1340.962239516899,None,4,2.4761875142576173,1340.962239516899,None,,,,,,,,,,,,,,,,,,,,,,,,,,,,,806000,2022_May_09_1258,palt,2021.1.2,59.847151510321574,
2,kötény,tisztás,,,,,,,,,2,0,2,0,,,,,0,9,9,1,,,,,,,,,1343.4573840911034,None,,,,,,,,,,,kötény,1344.4788500366267,None,4,3.86740258987993,1344.4788500366267,None,1344.4788500366267,None,1344.4788500366267,None,triatlon,1348.3759907096392,None,1348.3759907096392,None,down,2.3212891074363142,1348.3759907096392,None,1350.725687727565,None,4,2.1324179597431794,1350.725687727565,None,,,,,,,,,,,,,,,,,,,,,,,,,,,,,806000,2022_May_09_1258,palt,2021.1.2,59.847151510321574,
,,,,,,,,,,,2,0,2,0,,,,,,,,,,,,,,,,,,,,,,,,,,,,,,,,,,,,,,,,,,,,,,,,,,,,,,,,,,,,,,,,,,,,,,,,,,,4,7.587538549094461,1352.916581969359,None,1352.916581969359,None,,,806000,2022_May_09_1258,palt,2021.1.2,59.847151510321574,
2,kötény,tisztás,,,,,,,,,3,0,3,0,0,0,0,1,,,,,,,,,,,,,1364.5538786802208,None,1365.5537225552835,None,1365.5537225552835,None,,,,,,,,,,,,,,,,,,,,,,,,,,,,,,,,,,,,,,,1360.5336583137978,None,,,,,,,,,,,,,,,,,,,,,806000,2022_May_09_1258,palt,2021.1.2,59.847151510321574,
8,szalvéta,puska,,,,,,,,,3,0,3,0,0,1,1,7,,,,,,,,,,,,,1371.5422647830565,None,1372.5561207225546,None,1372.5561207225546,None,,,,,,,,,,,,,,,,,,,,,,,,,,,,,,,,,,,,,,,,,,,,,,,,,,,,,,,,,,,,,806000,2022_May_09_1258,palt,2021.1.2,59.847151510321574,
9,szilva,kecske,,,,,,,,,3,0,3,0,0,2,2,8,,,,,,,,,,,,,1378.550810605986,None,1379.5512161578517,None,1379.5512161578517,None,,,,,,,,,,,,,,,,,,,,,,,,,,,,,,,,,,,,,,,,,,,,,,,,,,,,,,,,,,,,,806000,2022_May_09_1258,palt,2021.1.2,59.847151510321574,
10,málna,dominó,,,,,,,,,3,0,3,0,0,3,3,9,,,,,,,,,,,,,1385.5364769612206,None,1386.5476240385324,None,1386.5476240385324,None,,,,,,,,,,,,,,,,,,,,,,,,,,,,,,,,,,,,,,,,,,,,,,,,,,,,,,,,,,,,,806000,2022_May_09_1258,palt,2021.1.2,59.847151510321574,
5,karton,hentes,,,,,,,,,3,0,3,0,0,4,4,4,,,,,,,,,,,,,1392.534231808968,None,1393.544855774031,None,1393.544855774031,None,,,,,,,,,,,,,,,,,,,,,,,,,,,,,,,,,,,,,,,,,,,,,,,,,,,,,,,,,,,,,806000,2022_May_09_1258,palt,2021.1.2,59.847151510321574,
6,menta,triatlon,,,,,,,,,3,0,3,0,0,5,5,5,,,,,,,,,,,,,1399.5346454469254,None,1400.5477220054017,None,1400.5477220054017,None,,,,,,,,,,,,,,,,,,,,,,,,,,,,,,,,,,,,,,,,,,,,,,,,,,,,,,,,,,,,,806000,2022_May_09_1258,palt,2021.1.2,59.847151510321574,
7,csavarhúzó,hering,,,,,,,,,3,0,3,0,0,6,6,6,,,,,,,,,,,,,1406.5337189600104,None,1407.5498433773173,None,1407.5498433773173,None,,,,,,,,,,,,,,,,,,,,,,,,,,,,,,,,,,,,,,,,,,,,,,,,,,,,,,,,,,,,,806000,2022_May_09_1258,palt,2021.1.2,59.847151510321574,
4,mocsár,ananász,,,,,,,,,3,0,3,0,0,7,7,3,,,,,,,,,,,,,1413.539499317645,None,1414.5487352629425,None,1414.5487352629425,None,,,,,,,,,,,,,,,,,,,,,,,,,,,,,,,,,,,,,,,,,,,,,,,,,,,,,,,,,,,,,806000,2022_May_09_1258,palt,2021.1.2,59.847151510321574,
3,fogó,limonádé,,,,,,,,,3,0,3,0,0,8,8,2,,,,,,,,,,,,,1420.5497706019087,None,1421.5473217406543,None,1421.5473217406543,None,,,,,,,,,,,,,,,,,,,,,,,,,,,,,,,,,,,,,,,,,,,,,,,,,,,,,,,,,,,,,806000,2022_May_09_1258,palt,2021.1.2,59.847151510321574,
1,bagoly,kirakó,,,,,,,,,3,0,3,0,0,9,9,0,,,,,,,,,,,,,1427.5341854690341,None,1428.5486960761482,None,1428.5486960761482,None,,,,,,,,,,,,,,,,,,,,,,,,,,,,,,,,,,,,,,,,,,,,,,,,,,,,,,,,,,,,,806000,2022_May_09_1258,palt,2021.1.2,59.847151510321574,
9,szilva,kecske,,,,,,,,,3,0,3,0,,,,,0,0,0,8,,,,,,,,,1442.9186193696223,None,,,,,,,,,,,szilva,1443.9151261502411,None,4,4.914877967443317,1443.9151261502411,None,1443.9151261502411,None,1443.9151261502411,None,karton,1448.8610251006903,None,1448.8610251006903,None,down,2.26688016182743,1448.8610251006903,None,1451.172178211389,None,4,3.076734511530958,1451.172178211389,None,,,,,,,1438.888494084007,None,1434.5345549441408,None,u,3.7139584471005946,1434.5345549441408,None,1438.2815867027966,None,4,0.5745294790249318,1438.2815867027966,None,,,,,,,,,806000,2022_May_09_1258,palt,2021.1.2,59.847151510321574,
8,szalvéta,puska,,,,,,,,,3,0,3,0,,,,,0,1,1,7,,,,,,,,,1454.2737126528518,None,,,,,,,,,,,puska,1455.3020086011384,None,4,5.492789636715315,1455.3020086011384,None,1455.3020086011384,None,1455.3020086011384,None,szeder,1460.8175623224815,None,1460.8175623224815,None,down,1.5101356856757775,1460.8175623224815,None,1462.3656668652548,None,4,1.2633620619308203,1462.3656668652548,None,,,,,,,,,,,,,,,,,,,,,,,,,,,,,806000,2022_May_09_1258,palt,2021.1.2,59.847151510321574,
10,málna,dominó,,,,,,,,,3,0,3,0,,,,,0,2,2,9,,,,,,,,,1463.6715879220283,None,,,,,,,,,,,dominó,1464.680518770474,None,4,1.7591976915718988,1464.680518770474,None,1464.680518770474,None,1464.680518770474,None,menta,1466.47814560798,None,1466.47814560798,None,down,3.033636854495853,1466.47814560798,None,1469.5427154307254,None,4,1.4628820553189144,1469.5427154307254,None,,,,,,,,,,,,,,,,,,,,,,,,,,,,,806000,2022_May_09_1258,palt,2021.1.2,59.847151510321574,
4,mocsár,ananász,,,,,,,,,3,0,3,0,,,,,0,3,3,3,,,,,,,,,1471.0363090180326,None,,,,,,,,,,,mocsár,1472.0647648234153,None,4,1.726875770604238,1472.0647648234153,None,1472.0647648234153,None,1472.0647648234153,None,ananász,1473.8259454893414,None,1473.8259454893414,None,down,1.733862520311959,1473.8259454893414,None,1475.5952894408256,None,4,1.1602119444869459,1475.5952894408256,None,,,,,,,,,,,,,,,,,,,,,,,,,,,,,806000,2022_May_09_1258,palt,2021.1.2,59.847151510321574,
6,menta,triatlon,,,,,,,,,3,0,3,0,,,,,0,4,4,5,,,,,,,,,1476.7929866280174,None,,,,,,,,,,,menta,1477.813494363916,None,4,4.244138158857822,1477.813494363916,None,1477.813494363916,None,1477.813494363916,None,triatlon,1482.0896132702474,None,1482.0896132702474,None,down,2.1899161278270185,1482.0896132702474,None,1484.310749113909,None,4,0.8697202065959573,1484.310749113909,None,,,,,,,,,,,,,,,,,,,,,,,,,,,,,806000,2022_May_09_1258,palt,2021.1.2,59.847151510321574,
5,karton,hentes,,,,,,,,,3,0,3,0,,,,,0,5,5,4,,,,,,,,,1485.2110580051085,None,,,,,,,,,,,hentes,1486.231216170243,None,None,,1486.231216170243,None,1486.231216170243,None,1486.231216170243,None, katona,1501.2349112326046,None,1501.2349112326046,None,down,2.852352387155406,1501.2349112326046,None,1504.122049952508,None,4,0.7921820554183796,1504.122049952508,None,,,,,,,,,,,,,,,,,,,,,,,,,,,,,806000,2022_May_09_1258,palt,2021.1.2,59.847151510321574,
7,csavarhúzó,hering,,,,,,,,,3,0,3,0,,,,,0,6,6,6,,,,,,,,,1504.9408855335787,None,,,,,,,,,,,hering,1505.966105632484,None,4,1.7549288232112303,1505.966105632484,None,1505.966105632484,None,1505.966105632484,None,csavarhúzó,1507.7651323081227,None,1507.7651323081227,None,down,2.9621113823959604,1507.7651323081227,None,1510.7600936999079,None,4,0.6020759029779583,1510.7600936999079,None,,,,,,,,,,,,,,,,,,,,,,,,,,,,,806000,2022_May_09_1258,palt,2021.1.2,59.847151510321574,
1,bagoly,kirakó,,,,,,,,,3,0,3,0,,,,,0,7,7,0,,,,,,,,,1511.3960804535309,None,,,,,,,,,,,kirakó,1512.4138476045337,None,4,1.5923087592236698,1512.4138476045337,None,1512.4138476045337,None,1512.4138476045337,None,bagoly,1514.0405551829608,None,1514.0405551829608,None,down,1.5349166442174464,1514.0405551829608,None,1515.6126945809228,None,4,1.0994146245066077,1515.6126945809228,None,,,,,,,,,,,,,,,,,,,,,,,,,,,,,806000,2022_May_09_1258,palt,2021.1.2,59.847151510321574,
2,kötény,tisztás,,,,,,,,,3,0,3,0,,,,,0,8,8,1,,,,,,,,,1516.7406359201996,None,,,,,,,,,,,kötény,1517.762882801704,None,4,12.620930952834897,1517.762882801704,None,1517.762882801704,None,1517.762882801704,None, ,1530.4262113372097,None,1530.4262113372097,None,down,1.6927307322621346,1530.4262113372097,None,1532.165295648505,None,4,1.1215619840659201,1532.165295648505,None,,,,,,,,,,,,,,,,,,,,,,,,,,,,,806000,2022_May_09_1258,palt,2021.1.2,59.847151510321574,
3,fogó,limonádé,,,,,,,,,3,0,3,0,,,,,0,9,9,2,,,,,,,,,1533.3196140290238,None,,,,,,,,,,,limonádé,1534.3371392174158,None,4,5.138634347706102,1534.3371392174158,None,1534.3371392174158,None,1534.3371392174158,None,fogó,1539.5143529271008,None,1539.5143529271008,None,down,1.9803437985247,1539.5143529271008,None,1541.5288056872087,None,4,0.9079509306466207,1541.5288056872087,None,,,,,,,,,,,,,,,,,,,,,,,,,,,,,806000,2022_May_09_1258,palt,2021.1.2,59.847151510321574,
,,,,,,,,,,,3,0,3,0,,,,,,,,,,,,,,,,,,,,,,,,,,,,,,,,,,,,,,,,,,,,,,,,,,,,,,,,,,,,,,,,,,,,,,,,,,,4,2.084333943319507,1542.4853814736707,None,1542.4853814736707,None,,,806000,2022_May_09_1258,palt,2021.1.2,59.847151510321574,
,,,,,,,,,,,,,,,,,,,,,,,,,,,,,,,,,,,,,,,,,,,,,,,,,,,,,,,,,,,,,,,,,,,,,,,,,,,,,,,,,,,,,,,,,,,,,,,1544.6063447712222,None,,,,,,
