itemno,wordA,wordB,enc_gyak.thisRepN,enc_gyak.thisTrialN,enc_gyak.thisN,enc_gyak.thisIndex,rec_gyak.thisRepN,rec_gyak.thisTrialN,rec_gyak.thisN,rec_gyak.thisIndex,repeat_task.thisRepN,repeat_task.thisTrialN,repeat_task.thisN,repeat_task.thisIndex,enc_loop.thisRepN,enc_loop.thisTrialN,enc_loop.thisN,enc_loop.thisIndex,test_loop.thisRepN,test_loop.thisTrialN,test_loop.thisN,test_loop.thisIndex,int.started,int.stopped,int_key.keys,int_key.rt,int_key.started,int_key.stopped,prepare_gyak_text.started,prepare_gyak_text.stopped,fix.started,fix.stopped,word1.started,word1.stopped,word2.started,word2.stopped,gykrec_inst.started,gykrec_inst.stopped,gyakrec_inst.keys,gyakrec_inst.rt,gyakrec_inst.started,gyakrec_inst.stopped,cueword,cueword1.started,cueword1.stopped,cue_resp.keys,cue_resp.rt,cue_resp.started,cue_resp.stopped,cue_cont_text.started,cue_cont_text.stopped,cue_space.started,cue_space.stopped,test_ansbox.text,test_ansbox.started,test_ansbox.stopped,ans_text.started,ans_text.stopped,ans_continue.keys,ans_continue.rt,ans_continue.started,ans_continue.stopped,feedback_text.started,feedback_text.stopped,feedback_cont.keys,feedback_cont.rt,feedback_cont.started,feedback_cont.stopped,main_prep.started,main_prep.stopped,main_prep_resp.keys,main_prep_resp.rt,main_prep_resp.started,main_prep_resp.stopped,preparation.started,preparation.stopped,break_text.started,break_text.stopped,key_resp.keys,key_resp.rt,key_resp.started,key_resp.stopped,test_instruction.started,test_instruction.stopped,test_i_key.keys,test_i_key.rt,test_i_key.started,test_i_key.stopped,rep_routine.keys,rep_routine.rt,rep_routine.started,rep_routine.stopped,encrep_textbox.started,encrep_textbox.stopped,end_text.started,end_text.stopped,Résztvevő kódja,date,expName,psychopyVersion,frameRate,
,,,,,,,,,,,,,,,,,,,,,,,30.917535103391856,None,4,165.741580092581,30.917535103391856,None,,,,,,,,,,,,,,,,,,,,,,,,,,,,,,,,,,,,,,,,,,,,,,,,,,,,,,,,,,,,,,,,,,,,,854499,2022_Apr_25_1031,palt,2021.1.2,50.360172375400325,
2,lepke,szintetizátor,0,0,0,1,,,,,,,,,,,,,,,,,,,,,,,196.69226704607718,None,199.73845602176152,None,200.71832294785418,None,200.71832294785418,None,,,,,,,,,,,,,,,,,,,,,,,,,,,,,,,,,,,,,,,,,,,,,,,,,,,,,,,,,,,,,854499,2022_Apr_25_1031,palt,2021.1.2,50.360172375400325,
4,kard,harcsa,0,1,1,3,,,,,,,,,,,,,,,,,,,,,,,,,206.69959500594996,None,207.7067432035692,None,207.7067432035692,None,,,,,,,,,,,,,,,,,,,,,,,,,,,,,,,,,,,,,,,,,,,,,,,,,,,,,,,,,,,,,854499,2022_Apr_25_1031,palt,2021.1.2,50.360172375400325,
3,majoránna,szikla,0,2,2,2,,,,,,,,,,,,,,,,,,,,,,,,,213.69993835827336,None,214.7099574666936,None,214.7099574666936,None,,,,,,,,,,,,,,,,,,,,,,,,,,,,,,,,,,,,,,,,,,,,,,,,,,,,,,,,,,,,,854499,2022_Apr_25_1031,palt,2021.1.2,50.360172375400325,
1,sapka,beton,0,3,3,0,,,,,,,,,,,,,,,,,,,,,,,,,220.70867735962383,None,221.7151525367517,None,221.7151525367517,None,,,,,,,,,,,,,,,,,,,,,,,,,,,,,,,,,,,,,,,,,,,,,,,,,,,,,,,,,,,,,854499,2022_Apr_25_1031,palt,2021.1.2,50.360172375400325,
,,,,,,,,,,,,,,,,,,,,,,,,,,,,,,,,,,,,,227.70044778869487,None,4,8.003932690480724,227.70044778869487,None,,,,,,,,,,,,,,,,,,,,,,,,,,,,,,,,,,,,,,,,,,,,,,,,,,,,,,,854499,2022_Apr_25_1031,palt,2021.1.2,50.360172375400325,
2,lepke,szintetizátor,,,,,0,0,0,1,,,,,,,,,,,,,,,,,,,,,235.75489556998946,None,,,,,,,,,,,szintetizátor,236.77301829098724,None,4,4.868304473813623,236.77301829098724,None,236.77301829098724,None,236.77301829098724,None, lepke,241.69732216279954,None,241.69732216279954,None,down,4.900013248901814,241.69732216279954,None,246.63707626773976,None,4,12.838515237672254,246.63707626773976,None,,,,,,,,,,,,,,,,,,,,,,,,,,,,,854499,2022_Apr_25_1031,palt,2021.1.2,50.360172375400325,
3,majoránna,szikla,,,,,0,1,1,2,,,,,,,,,,,,,,,,,,,,,259.5319883709308,None,,,,,,,,,,,majoránna,260.544286853401,None,4,6.095922193257138,260.544286853401,None,260.544286853401,None,260.544286853401,None, szikla,266.6744575095363,None,266.6744575095363,None,down,2.8988391952589154,266.6744575095363,None,269.6000996467192,None,4,1.6529625337570906,269.6000996467192,None,,,,,,,,,,,,,,,,,,,,,,,,,,,,,854499,2022_Apr_25_1031,palt,2021.1.2,50.360172375400325,
4,kard,harcsa,,,,,0,2,2,3,,,,,,,,,,,,,,,,,,,,,271.29474558960646,None,,,,,,,,,,,harcsa,272.3126095524058,None,4,7.30945406970568,272.3126095524058,None,272.3126095524058,None,272.3126095524058,None, kacsa,279.66665464104153,None,279.66665464104153,None,down,3.362444469705224,279.66665464104153,None,283.06541484058835,None,4,6.14862957643345,283.06541484058835,None,,,,,,,,,,,,,,,,,,,,,,,,,,,,,854499,2022_Apr_25_1031,palt,2021.1.2,50.360172375400325,
1,sapka,beton,,,,,0,3,3,0,,,,,,,,,,,,,,,,,,,,,289.2406252992805,None,,,,,,,,,,,sapka,290.2593806097284,None,4,3.8376559235621244,290.2593806097284,None,290.2593806097284,None,290.2593806097284,None, beton,294.12945689377375,None,294.12945689377375,None,down,3.795920265140012,294.12945689377375,None,297.96732958965003,None,4,7.482628362020478,297.96732958965003,None,,,,,,,,,,,,,,,,,,,,,,,,,,,,,854499,2022_Apr_25_1031,palt,2021.1.2,50.360172375400325,
,,,,,,,,,,,,,,,,,,,,,,,,,,,,,,,,,,,,,,,,,,,,,,,,,,,,,,,,,,,,,,,,,,,,,305.49044646997936,None,4,15.523306905990466,305.49044646997936,None,,,,,,,,,,,,,,,,,,,,,,,854499,2022_Apr_25_1031,palt,2021.1.2,50.360172375400325,
1,bagoly,kirakó,,,,,,,,,0,0,0,0,0,0,0,0,,,,,,,,,,,,,325.06507086614147,None,326.0643493286334,None,326.0643493286334,None,,,,,,,,,,,,,,,,,,,,,,,,,,,,,,,,,,,,,,,321.04549760580994,None,,,,,,,,,,,,,,,,,,,,,854499,2022_Apr_25_1031,palt,2021.1.2,50.360172375400325,
9,szilva,kecske,,,,,,,,,0,0,0,0,0,1,1,8,,,,,,,,,,,,,332.04905522125773,None,333.06003036675975,None,333.06003036675975,None,,,,,,,,,,,,,,,,,,,,,,,,,,,,,,,,,,,,,,,,,,,,,,,,,,,,,,,,,,,,,854499,2022_Apr_25_1031,palt,2021.1.2,50.360172375400325,
4,mocsár,ananász,,,,,,,,,0,0,0,0,0,2,2,3,,,,,,,,,,,,,339.0486739259213,None,340.05727390688844,None,340.05727390688844,None,,,,,,,,,,,,,,,,,,,,,,,,,,,,,,,,,,,,,,,,,,,,,,,,,,,,,,,,,,,,,854499,2022_Apr_25_1031,palt,2021.1.2,50.360172375400325,
10,málna,dominó,,,,,,,,,0,0,0,0,0,3,3,9,,,,,,,,,,,,,346.0464654613752,None,347.0483632294927,None,347.0483632294927,None,,,,,,,,,,,,,,,,,,,,,,,,,,,,,,,,,,,,,,,,,,,,,,,,,,,,,,,,,,,,,854499,2022_Apr_25_1031,palt,2021.1.2,50.360172375400325,
6,menta,triatlon,,,,,,,,,0,0,0,0,0,4,4,5,,,,,,,,,,,,,353.04842294286937,None,354.0546359408181,None,354.0546359408181,None,,,,,,,,,,,,,,,,,,,,,,,,,,,,,,,,,,,,,,,,,,,,,,,,,,,,,,,,,,,,,854499,2022_Apr_25_1031,palt,2021.1.2,50.360172375400325,
3,fogó,limonádé,,,,,,,,,0,0,0,0,0,5,5,2,,,,,,,,,,,,,360.04880299419165,None,361.05769594409503,None,361.05769594409503,None,,,,,,,,,,,,,,,,,,,,,,,,,,,,,,,,,,,,,,,,,,,,,,,,,,,,,,,,,,,,,854499,2022_Apr_25_1031,palt,2021.1.2,50.360172375400325,
8,szalvéta,puska,,,,,,,,,0,0,0,0,0,6,6,7,,,,,,,,,,,,,367.0475791795179,None,368.058564277133,None,368.058564277133,None,,,,,,,,,,,,,,,,,,,,,,,,,,,,,,,,,,,,,,,,,,,,,,,,,,,,,,,,,,,,,854499,2022_Apr_25_1031,palt,2021.1.2,50.360172375400325,
5,karton,hentes,,,,,,,,,0,0,0,0,0,7,7,4,,,,,,,,,,,,,374.053028031718,None,375.0607895362191,None,375.0607895362191,None,,,,,,,,,,,,,,,,,,,,,,,,,,,,,,,,,,,,,,,,,,,,,,,,,,,,,,,,,,,,,854499,2022_Apr_25_1031,palt,2021.1.2,50.360172375400325,
7,csavarhúzó,hering,,,,,,,,,0,0,0,0,0,8,8,6,,,,,,,,,,,,,381.0459572749678,None,382.063542264048,None,382.063542264048,None,,,,,,,,,,,,,,,,,,,,,,,,,,,,,,,,,,,,,,,,,,,,,,,,,,,,,,,,,,,,,854499,2022_Apr_25_1031,palt,2021.1.2,50.360172375400325,
2,kötény,tisztás,,,,,,,,,0,0,0,0,0,9,9,1,,,,,,,,,,,,,388.0461525877472,None,389.0543323974125,None,389.0543323974125,None,,,,,,,,,,,,,,,,,,,,,,,,,,,,,,,,,,,,,,,,,,,,,,,,,,,,,,,,,,,,,854499,2022_Apr_25_1031,palt,2021.1.2,50.360172375400325,
7,csavarhúzó,hering,,,,,,,,,0,0,0,0,,,,,0,0,0,6,,,,,,,,,412.371149570914,None,,,,,,,,,,,csavarhúzó,413.3817763880361,None,4,1.354565093293786,413.3817763880361,None,413.3817763880361,None,413.3817763880361,None, harcsa,414.77125145704485,None,414.77125145704485,None,down,3.793037225259468,414.77125145704485,None,418.6122127689887,None,4,13.865656866459176,418.6122127689887,None,,,,,,,408.3464919591788,None,395.0479477234185,None,u,3.484606059268117,395.0479477234185,None,398.576377856778,None,4,9.736872371053323,398.576377856778,None,,,,,,,,,854499,2022_Apr_25_1031,palt,2021.1.2,50.360172375400325,
5,karton,hentes,,,,,,,,,0,0,0,0,,,,,0,1,1,4,,,,,,,,,432.509366925573,None,,,,,,,,,,,hentes,433.52765168156475,None,4,3.804066797019914,433.52765168156475,None,433.52765168156475,None,433.52765168156475,None, karton,437.36304129310884,None,437.36304129310884,None,down,4.240738817024976,437.36304129310884,None,441.6433446248993,None,4,4.073480510385707,441.6433446248993,None,,,,,,,,,,,,,,,,,,,,,,,,,,,,,854499,2022_Apr_25_1031,palt,2021.1.2,50.360172375400325,
3,fogó,limonádé,,,,,,,,,0,0,0,0,,,,,0,2,2,2,,,,,,,,,445.7495801397599,None,,,,,,,,,,,fogó,446.7673489341978,None,4,2.802226876374334,446.7673489341978,None,446.7673489341978,None,446.7673489341978,None, lap,449.6143649411388,None,449.6143649411388,None,down,5.381313608959317,449.6143649411388,None,455.04174374463037,None,4,3.218786037992686,455.04174374463037,None,,,,,,,,,,,,,,,,,,,,,,,,,,,,,854499,2022_Apr_25_1031,palt,2021.1.2,50.360172375400325,
8,szalvéta,puska,,,,,,,,,0,0,0,0,,,,,0,3,3,7,,,,,,,,,458.2831344336737,None,,,,,,,,,,,szalvéta,459.2999126689974,None,4,3.51767362607643,459.2999126689974,None,459.2999126689974,None,459.2999126689974,None, piros,462.84730213391595,None,462.84730213391595,None,down,5.30013348441571,462.84730213391595,None,468.19414459867403,None,4,14.38060171250254,468.19414459867403,None,,,,,,,,,,,,,,,,,,,,,,,,,,,,,854499,2022_Apr_25_1031,palt,2021.1.2,50.360172375400325,
2,kötény,tisztás,,,,,,,,,0,0,0,0,,,,,0,4,4,1,,,,,,,,,482.6104030159768,None,,,,,,,,,,,tisztás,483.62878511752933,None,4,3.0814793137833476,483.62878511752933,None,483.62878511752933,None,483.62878511752933,None, karton,486.756336778868,None,486.756336778868,None,down,3.5830486577469856,486.756336778868,None,490.37049645511433,None,4,4.59191330592148,490.37049645511433,None,,,,,,,,,,,,,,,,,,,,,,,,,,,,,854499,2022_Apr_25_1031,palt,2021.1.2,50.360172375400325,
10,málna,dominó,,,,,,,,,0,0,0,0,,,,,0,5,5,9,,,,,,,,,494.9845833557192,None,,,,,,,,,,,málna,496.01236783736385,None,4,3.958775948965922,496.01236783736385,None,496.01236783736385,None,496.01236783736385,None, dominó,500.0159574865829,None,500.0159574865829,None,down,2.7073369168210775,500.0159574865829,None,502.7589430222288,None,4,4.047186687821522,502.7589430222288,None,,,,,,,,,,,,,,,,,,,,,,,,,,,,,854499,2022_Apr_25_1031,palt,2021.1.2,50.360172375400325,
9,szilva,kecske,,,,,,,,,0,0,0,0,,,,,0,6,6,8,,,,,,,,,506.84645899245515,None,,,,,,,,,,,szilva,507.8640340291895,None,4,1.5880823149345815,507.8640340291895,None,507.8640340291895,None,507.8640340291895,None, kard,509.50028208387084,None,509.50028208387084,None,down,4.214924879139289,509.50028208387084,None,513.7663723705336,None,4,6.61371711269021,513.7663723705336,None,,,,,,,,,,,,,,,,,,,,,,,,,,,,,854499,2022_Apr_25_1031,palt,2021.1.2,50.360172375400325,
6,menta,triatlon,,,,,,,,,0,0,0,0,,,,,0,7,7,5,,,,,,,,,520.398375172168,None,,,,,,,,,,,triatlon,521.4143466539681,None,4,4.40961249708198,521.4143466539681,None,521.4143466539681,None,521.4143466539681,None, majoranna,525.869565298548,None,525.869565298548,None,down,3.5253698190208524,525.869565298548,None,529.4392767085228,None,4,11.404576662695035,529.4392767085228,None,,,,,,,,,,,,,,,,,,,,,,,,,,,,,854499,2022_Apr_25_1031,palt,2021.1.2,50.360172375400325,
4,mocsár,ananász,,,,,,,,,0,0,0,0,,,,,0,8,8,3,,,,,,,,,540.8856145322789,None,,,,,,,,,,,ananász,541.8994720957708,None,4,2.6754306519869715,541.8994720957708,None,541.8994720957708,None,541.8994720957708,None, málna,544.6168299871497,None,544.6168299871497,None,down,4.089999676682055,544.6168299871497,None,548.7489534595516,None,4,5.5438150549307466,548.7489534595516,None,,,,,,,,,,,,,,,,,,,,,,,,,,,,,854499,2022_Apr_25_1031,palt,2021.1.2,50.360172375400325,
1,bagoly,kirakó,,,,,,,,,0,0,0,0,,,,,0,9,9,0,,,,,,,,,554.3369962766301,None,,,,,,,,,,,bagoly,555.3595253527164,None,4,3.9593432266265154,555.3595253527164,None,555.3595253527164,None,555.3595253527164,None, kalap,559.3511735559441,None,559.3511735559441,None,down,3.4996382982935756,559.3511735559441,None,562.8838567174971,None,4,2.4628330424893647,562.8838567174971,None,,,,,,,,,,,,,,,,,,,,,,,,,,,,,854499,2022_Apr_25_1031,palt,2021.1.2,50.360172375400325,
,,,,,,,,,,,0,0,0,0,,,,,,,,,,,,,,,,,,,,,,,,,,,,,,,,,,,,,,,,,,,,,,,,,,,,,,,,,,,,,,,,,,,,,,,,,,,4,51.15697266487405,565.4163259060588,None,565.4163259060588,None,,,854499,2022_Apr_25_1031,palt,2021.1.2,50.360172375400325,
7,csavarhúzó,hering,,,,,,,,,1,0,1,0,0,0,0,6,,,,,,,,,,,,,620.624341752613,None,621.6329625709914,None,621.6329625709914,None,,,,,,,,,,,,,,,,,,,,,,,,,,,,,,,,,,,,,,,616.6134891440161,None,,,,,,,,,,,,,,,,,,,,,854499,2022_Apr_25_1031,palt,2021.1.2,50.360172375400325,
6,menta,triatlon,,,,,,,,,1,0,1,0,0,1,1,5,,,,,,,,,,,,,627.621449693339,None,628.6429387601092,None,628.6429387601092,None,,,,,,,,,,,,,,,,,,,,,,,,,,,,,,,,,,,,,,,,,,,,,,,,,,,,,,,,,,,,,854499,2022_Apr_25_1031,palt,2021.1.2,50.360172375400325,
8,szalvéta,puska,,,,,,,,,1,0,1,0,0,2,2,7,,,,,,,,,,,,,634.6110825676005,None,635.626933689462,None,635.626933689462,None,,,,,,,,,,,,,,,,,,,,,,,,,,,,,,,,,,,,,,,,,,,,,,,,,,,,,,,,,,,,,854499,2022_Apr_25_1031,palt,2021.1.2,50.360172375400325,
2,kötény,tisztás,,,,,,,,,1,0,1,0,0,3,3,1,,,,,,,,,,,,,641.6270814179443,None,642.6297153409105,None,642.6297153409105,None,,,,,,,,,,,,,,,,,,,,,,,,,,,,,,,,,,,,,,,,,,,,,,,,,,,,,,,,,,,,,854499,2022_Apr_25_1031,palt,2021.1.2,50.360172375400325,
10,málna,dominó,,,,,,,,,1,0,1,0,0,4,4,9,,,,,,,,,,,,,648.6272558933124,None,649.6345272499602,None,649.6345272499602,None,,,,,,,,,,,,,,,,,,,,,,,,,,,,,,,,,,,,,,,,,,,,,,,,,,,,,,,,,,,,,854499,2022_Apr_25_1031,palt,2021.1.2,50.360172375400325,
4,mocsár,ananász,,,,,,,,,1,0,1,0,0,5,5,3,,,,,,,,,,,,,655.6123614306562,None,656.6247395311948,None,656.6247395311948,None,,,,,,,,,,,,,,,,,,,,,,,,,,,,,,,,,,,,,,,,,,,,,,,,,,,,,,,,,,,,,854499,2022_Apr_25_1031,palt,2021.1.2,50.360172375400325,
9,szilva,kecske,,,,,,,,,1,0,1,0,0,6,6,8,,,,,,,,,,,,,662.6136925430037,None,663.6320049786009,None,663.6320049786009,None,,,,,,,,,,,,,,,,,,,,,,,,,,,,,,,,,,,,,,,,,,,,,,,,,,,,,,,,,,,,,854499,2022_Apr_25_1031,palt,2021.1.2,50.360172375400325,
1,bagoly,kirakó,,,,,,,,,1,0,1,0,0,7,7,0,,,,,,,,,,,,,669.613546991488,None,670.6301774983294,None,670.6301774983294,None,,,,,,,,,,,,,,,,,,,,,,,,,,,,,,,,,,,,,,,,,,,,,,,,,,,,,,,,,,,,,854499,2022_Apr_25_1031,palt,2021.1.2,50.360172375400325,
5,karton,hentes,,,,,,,,,1,0,1,0,0,8,8,4,,,,,,,,,,,,,676.612605571514,None,677.6247230477165,None,677.6247230477165,None,,,,,,,,,,,,,,,,,,,,,,,,,,,,,,,,,,,,,,,,,,,,,,,,,,,,,,,,,,,,,854499,2022_Apr_25_1031,palt,2021.1.2,50.360172375400325,
3,fogó,limonádé,,,,,,,,,1,0,1,0,0,9,9,2,,,,,,,,,,,,,683.6120585091412,None,684.6250517826993,None,684.6250517826993,None,,,,,,,,,,,,,,,,,,,,,,,,,,,,,,,,,,,,,,,,,,,,,,,,,,,,,,,,,,,,,854499,2022_Apr_25_1031,palt,2021.1.2,50.360172375400325,
1,bagoly,kirakó,,,,,,,,,1,0,1,0,,,,,0,0,0,0,,,,,,,,,703.3952980635222,None,,,,,,,,,,,bagoly,704.3865310715046,None,4,2.2240582380909473,704.3865310715046,None,704.3865310715046,None,704.3865310715046,None,karton,706.6413631958421,None,706.6413631958421,None,down,5.136071091517806,706.6413631958421,None,711.818941666279,None,4,5.280893313232809,711.818941666279,None,,,,,,,699.3843558847439,None,690.6119412593544,None,u,2.8617636740673333,690.6119412593544,None,693.4995023878291,None,4,5.8434733198955655,693.4995023878291,None,,,,,,,,,854499,2022_Apr_25_1031,palt,2021.1.2,50.360172375400325,
5,karton,hentes,,,,,,,,,1,0,1,0,,,,,0,1,1,4,,,,,,,,,717.1344252394047,None,,,,,,,,,,,hentes,718.1552111180499,None,4,4.571115608792752,718.1552111180499,None,718.1552111180499,None,718.1552111180499,None, karton,722.7720016073436,None,722.7720016073436,None,down,2.397870406974107,722.7720016073436,None,725.2142459498718,None,4,4.991138772806153,725.2142459498718,None,,,,,,,,,,,,,,,,,,,,,,,,,,,,,854499,2022_Apr_25_1031,palt,2021.1.2,50.360172375400325,
3,fogó,limonádé,,,,,,,,,1,0,1,0,,,,,0,2,2,2,,,,,,,,,730.2343273963779,None,,,,,,,,,,,fogó,731.263441435527,None,4,4.540156051050872,731.263441435527,None,731.263441435527,None,731.263441435527,None, lemez,735.8295691052917,None,735.8295691052917,None,down,7.867857245029882,735.8295691052917,None,743.7470927014947,None,4,10.611037471331656,743.7470927014947,None,,,,,,,,,,,,,,,,,,,,,,,,,,,,,854499,2022_Apr_25_1031,palt,2021.1.2,50.360172375400325,
4,mocsár,ananász,,,,,,,,,1,0,1,0,,,,,0,3,3,3,,,,,,,,,754.4034747630358,None,,,,,,,,,,,ananász,755.4266348734964,None,4,2.878409731434658,755.4266348734964,None,755.4266348734964,None,755.4266348734964,None, mocsár,758.3475406765938,None,758.3475406765938,None,down,2.838059300556779,758.3475406765938,None,761.2252270043828,None,4,3.617893944028765,761.2252270043828,None,,,,,,,,,,,,,,,,,,,,,,,,,,,,,854499,2022_Apr_25_1031,palt,2021.1.2,50.360172375400325,
9,szilva,kecske,,,,,,,,,1,0,1,0,,,,,0,4,4,8,,,,,,,,,764.8690201023128,None,,,,,,,,,,,szilva,765.882644721074,None,4,3.73941143671982,765.882644721074,None,765.882644721074,None,765.882644721074,None, kapa,769.6676651046146,None,769.6676651046146,None,down,5.213355534942821,769.6676651046146,None,774.933503475273,None,4,7.162589461309835,774.933503475273,None,,,,,,,,,,,,,,,,,,,,,,,,,,,,,854499,2022_Apr_25_1031,palt,2021.1.2,50.360172375400325,
10,málna,dominó,,,,,,,,,1,0,1,0,,,,,0,5,5,9,,,,,,,,,782.1178793266881,None,,,,,,,,,,,málna,783.1461760378443,None,4,4.944993649376556,783.1461760378443,None,783.1461760378443,None,783.1461760378443,None, dominó,788.1200821930543,None,788.1200821930543,None,down,2.888821953209117,788.1200821930543,None,791.0478677945212,None,4,2.5412112998310477,791.0478677945212,None,,,,,,,,,,,,,,,,,,,,,,,,,,,,,854499,2022_Apr_25_1031,palt,2021.1.2,50.360172375400325,
6,menta,triatlon,,,,,,,,,1,0,1,0,,,,,0,6,6,5,,,,,,,,,793.6145829574671,None,,,,,,,,,,,triatlon,794.6421668394469,None,4,3.544681211002171,794.6421668394469,None,794.6421668394469,None,794.6421668394469,None, mocsár,798.2225663347635,None,798.2225663347635,None,down,2.9947256229352206,798.2225663347635,None,801.2659500222653,None,4,6.146873938618228,801.2659500222653,None,,,,,,,,,,,,,,,,,,,,,,,,,,,,,854499,2022_Apr_25_1031,palt,2021.1.2,50.360172375400325,
8,szalvéta,puska,,,,,,,,,1,0,1,0,,,,,0,7,7,7,,,,,,,,,807.4471184527501,None,,,,,,,,,,,szalvéta,808.4627882572822,None,4,5.795951677020639,808.4627882572822,None,808.4627882572822,None,808.4627882572822,None, puska,814.3036217452027,None,814.3036217452027,None,down,3.2654981282539666,814.3036217452027,None,817.6146330297925,None,4,1.9300911005120724,817.6146330297925,None,,,,,,,,,,,,,,,,,,,,,,,,,,,,,854499,2022_Apr_25_1031,palt,2021.1.2,50.360172375400325,
2,kötény,tisztás,,,,,,,,,1,0,1,0,,,,,0,8,8,1,,,,,,,,,819.5840398387518,None,,,,,,,,,,,tisztás,820.6056032364722,None,4,6.497990269213915,820.6056032364722,None,820.6056032364722,None,820.6056032364722,None, kapa,827.1341238729656,None,827.1341238729656,None,down,6.1624765656888485,827.1341238729656,None,833.3495560055599,None,4,5.548054087907076,833.3495560055599,None,,,,,,,,,,,,,,,,,,,,,,,,,,,,,854499,2022_Apr_25_1031,palt,2021.1.2,50.360172375400325,
7,csavarhúzó,hering,,,,,,,,,1,0,1,0,,,,,0,9,9,6,,,,,,,,,838.9282996968832,None,,,,,,,,,,,csavarhúzó,839.9508272178937,None,4,7.991482125129551,839.9508272178937,None,839.9508272178937,None,839.9508272178937,None, hideg,847.9866602639668,None,847.9866602639668,None,down,5.405697533860803,847.9866602639668,None,853.4219840664882,None,4,4.139588275691494,853.4219840664882,None,,,,,,,,,,,,,,,,,,,,,,,,,,,,,854499,2022_Apr_25_1031,palt,2021.1.2,50.360172375400325,
,,,,,,,,,,,1,0,1,0,,,,,,,,,,,,,,,,,,,,,,,,,,,,,,,,,,,,,,,,,,,,,,,,,,,,,,,,,,,,,,,,,,,,,,,,,,,4,62.243382692104205,857.6344911730848,None,857.6344911730848,None,,,854499,2022_Apr_25_1031,palt,2021.1.2,50.360172375400325,
4,mocsár,ananász,,,,,,,,,2,0,2,0,0,0,0,3,,,,,,,,,,,,,923.9304045960307,None,924.9317428614013,None,924.9317428614013,None,,,,,,,,,,,,,,,,,,,,,,,,,,,,,,,,,,,,,,,919.9090091423132,None,,,,,,,,,,,,,,,,,,,,,854499,2022_Apr_25_1031,palt,2021.1.2,50.360172375400325,
2,kötény,tisztás,,,,,,,,,2,0,2,0,0,1,1,1,,,,,,,,,,,,,930.9107243490871,None,931.9283177352045,None,931.9283177352045,None,,,,,,,,,,,,,,,,,,,,,,,,,,,,,,,,,,,,,,,,,,,,,,,,,,,,,,,,,,,,,854499,2022_Apr_25_1031,palt,2021.1.2,50.360172375400325,
10,málna,dominó,,,,,,,,,2,0,2,0,0,2,2,9,,,,,,,,,,,,,937.9100460414775,None,938.9214833443984,None,938.9214833443984,None,,,,,,,,,,,,,,,,,,,,,,,,,,,,,,,,,,,,,,,,,,,,,,,,,,,,,,,,,,,,,854499,2022_Apr_25_1031,palt,2021.1.2,50.360172375400325,
6,menta,triatlon,,,,,,,,,2,0,2,0,0,3,3,5,,,,,,,,,,,,,944.9090884493198,None,945.9253193114419,None,945.9253193114419,None,,,,,,,,,,,,,,,,,,,,,,,,,,,,,,,,,,,,,,,,,,,,,,,,,,,,,,,,,,,,,854499,2022_Apr_25_1031,palt,2021.1.2,50.360172375400325,
1,bagoly,kirakó,,,,,,,,,2,0,2,0,0,4,4,0,,,,,,,,,,,,,951.909501156304,None,952.919314999599,None,952.919314999599,None,,,,,,,,,,,,,,,,,,,,,,,,,,,,,,,,,,,,,,,,,,,,,,,,,,,,,,,,,,,,,854499,2022_Apr_25_1031,palt,2021.1.2,50.360172375400325,
9,szilva,kecske,,,,,,,,,2,0,2,0,0,5,5,8,,,,,,,,,,,,,958.9083622465841,None,959.9238535328768,None,959.9238535328768,None,,,,,,,,,,,,,,,,,,,,,,,,,,,,,,,,,,,,,,,,,,,,,,,,,,,,,,,,,,,,,854499,2022_Apr_25_1031,palt,2021.1.2,50.360172375400325,
8,szalvéta,puska,,,,,,,,,2,0,2,0,0,6,6,7,,,,,,,,,,,,,965.9086026556324,None,966.9255367056467,None,966.9255367056467,None,,,,,,,,,,,,,,,,,,,,,,,,,,,,,,,,,,,,,,,,,,,,,,,,,,,,,,,,,,,,,854499,2022_Apr_25_1031,palt,2021.1.2,50.360172375400325,
5,karton,hentes,,,,,,,,,2,0,2,0,0,7,7,4,,,,,,,,,,,,,972.9096121860202,None,973.9293303759769,None,973.9293303759769,None,,,,,,,,,,,,,,,,,,,,,,,,,,,,,,,,,,,,,,,,,,,,,,,,,,,,,,,,,,,,,854499,2022_Apr_25_1031,palt,2021.1.2,50.360172375400325,
3,fogó,limonádé,,,,,,,,,2,0,2,0,0,8,8,2,,,,,,,,,,,,,979.9307902453002,None,980.9215810007881,None,980.9215810007881,None,,,,,,,,,,,,,,,,,,,,,,,,,,,,,,,,,,,,,,,,,,,,,,,,,,,,,,,,,,,,,854499,2022_Apr_25_1031,palt,2021.1.2,50.360172375400325,
7,csavarhúzó,hering,,,,,,,,,2,0,2,0,0,9,9,6,,,,,,,,,,,,,986.9296861684415,None,987.9431888724212,None,987.9431888724212,None,,,,,,,,,,,,,,,,,,,,,,,,,,,,,,,,,,,,,,,,,,,,,,,,,,,,,,,,,,,,,854499,2022_Apr_25_1031,palt,2021.1.2,50.360172375400325,
2,kötény,tisztás,,,,,,,,,2,0,2,0,,,,,0,0,0,1,,,,,,,,,1002.8572577966843,None,,,,,,,,,,,tisztás,1003.8570895416196,None,4,4.655024513835087,1003.8570895416196,None,1003.8570895416196,None,1003.8570895416196,None, kecske,1008.5436343597248,None,1008.5436343597248,None,down,3.6314650694839656,1008.5436343597248,None,1012.204670338193,None,4,4.3036326305009425,1012.204670338193,None,,,,,,,998.8341853902675,None,993.9079398983158,None,u,3.0837450036779046,993.9079398983158,None,997.0259492262267,None,4,1.777341917855665,997.0259492262267,None,,,,,,,,,854499,2022_Apr_25_1031,palt,2021.1.2,50.360172375400325,
5,karton,hentes,,,,,,,,,2,0,2,0,,,,,0,1,1,4,,,,,,,,,1016.540055595804,None,,,,,,,,,,,hentes,1017.55698715779,None,4,2.231063994113356,1017.55698715779,None,1017.55698715779,None,1017.55698715779,None, karton,1019.8183383115102,None,1019.8183383115102,None,down,2.788952762959525,1019.8183383115102,None,1022.6410422360059,None,4,5.084943937836215,1022.6410422360059,None,,,,,,,,,,,,,,,,,,,,,,,,,,,,,854499,2022_Apr_25_1031,palt,2021.1.2,50.360172375400325,
3,fogó,limonádé,,,,,,,,,2,0,2,0,,,,,0,2,2,2,,,,,,,,,1027.7639191430062,None,,,,,,,,,,,fogó,1028.771222844487,None,4,2.8756579363252968,1028.771222844487,None,1028.771222844487,None,1028.771222844487,None, limonádé,1031.692956549814,None,1031.692956549814,None,down,4.065952572738752,1031.692956549814,None,1035.7874829412904,None,4,1.3932749591767788,1035.7874829412904,None,,,,,,,,,,,,,,,,,,,,,,,,,,,,,854499,2022_Apr_25_1031,palt,2021.1.2,50.360172375400325,
7,csavarhúzó,hering,,,,,,,,,2,0,2,0,,,,,0,3,3,6,,,,,,,,,1037.21499703289,None,,,,,,,,,,,csavarhúzó,1038.2442762169521,None,4,1.577624375000596,1038.2442762169521,None,1038.2442762169521,None,1038.2442762169521,None, hering,1039.8512382453773,None,1039.8512382453773,None,down,3.3476199836004525,1039.8512382453773,None,1043.2306015258655,None,4,1.2352252751588821,1043.2306015258655,None,,,,,,,,,,,,,,,,,,,,,,,,,,,,,854499,2022_Apr_25_1031,palt,2021.1.2,50.360172375400325,
9,szilva,kecske,,,,,,,,,2,0,2,0,,,,,0,4,4,8,,,,,,,,,1044.4898978527635,None,,,,,,,,,,,szilva,1045.5055144748185,None,4,2.2622658270411193,1045.5055144748185,None,1045.5055144748185,None,1045.5055144748185,None, kecske,1047.8147533275187,None,1047.8147533275187,None,down,2.8720396745484322,1047.8147533275187,None,1050.7180421079975,None,4,1.6237284454982728,1050.7180421079975,None,,,,,,,,,,,,,,,,,,,,,,,,,,,,,854499,2022_Apr_25_1031,palt,2021.1.2,50.360172375400325,
6,menta,triatlon,,,,,,,,,2,0,2,0,,,,,0,5,5,5,,,,,,,,,1052.3688135931734,None,,,,,,,,,,,triatlon,1053.3801171628293,None,4,2.139638969907537,1053.3801171628293,None,1053.3801171628293,None,1053.3801171628293,None, menta,1055.5484894984402,None,1055.5484894984402,None,down,3.3945124582387507,1055.5484894984402,None,1058.9742439095862,None,4,1.1665964827407151,1058.9742439095862,None,,,,,,,,,,,,,,,,,,,,,,,,,,,,,854499,2022_Apr_25_1031,palt,2021.1.2,50.360172375400325,
8,szalvéta,puska,,,,,,,,,2,0,2,0,,,,,0,6,6,7,,,,,,,,,1060.1610624142922,None,,,,,,,,,,,szalvéta,1061.1817525026854,None,4,2.149095776490867,1061.1817525026854,None,1061.1817525026854,None,1061.1817525026854,None, puska,1063.3616128354333,None,1063.3616128354333,None,down,3.149166064336896,1063.3616128354333,None,1066.5399349248037,None,4,0.7329863319173455,1066.5399349248037,None,,,,,,,,,,,,,,,,,,,,,,,,,,,,,854499,2022_Apr_25_1031,palt,2021.1.2,50.360172375400325,
4,mocsár,ananász,,,,,,,,,2,0,2,0,,,,,0,7,7,3,,,,,,,,,1067.2941185983364,None,,,,,,,,,,,ananász,1068.30075332243,None,4,2.9937531023751944,1068.30075332243,None,1068.30075332243,None,1068.30075332243,None, mocsár,1071.3228681364562,None,1071.3228681364562,None,down,3.939692525425926,1071.3228681364562,None,1075.2897557844408,None,4,0.8320459693204612,1075.2897557844408,None,,,,,,,,,,,,,,,,,,,,,,,,,,,,,854499,2022_Apr_25_1031,palt,2021.1.2,50.360172375400325,
10,málna,dominó,,,,,,,,,2,0,2,0,,,,,0,8,8,9,,,,,,,,,1076.1509300991893,None,,,,,,,,,,,málna,1077.1711278627627,None,4,1.81048972485587,1077.1711278627627,None,1077.1711278627627,None,1077.1711278627627,None, dominó,1079.0091349137947,None,1079.0091349137947,None,down,3.2614161542151123,1079.0091349137947,None,1082.301343925763,None,4,0.9271810026839375,1082.301343925763,None,,,,,,,,,,,,,,,,,,,,,,,,,,,,,854499,2022_Apr_25_1031,palt,2021.1.2,50.360172375400325,
1,bagoly,kirakó,,,,,,,,,2,0,2,0,,,,,0,9,9,0,,,,,,,,,1083.2696003180463,None,,,,,,,,,,,bagoly,1084.290832492523,None,4,3.4876461578533053,1084.290832492523,None,1084.290832492523,None,1084.290832492523,None, karton,1087.8123797178268,None,1087.8123797178268,None,down,4.874382494483143,1087.8123797178268,None,1092.7262356018182,None,4,2.2830806295387447,1092.7262356018182,None,,,,,,,,,,,,,,,,,,,,,,,,,,,,,854499,2022_Apr_25_1031,palt,2021.1.2,50.360172375400325,
,,,,,,,,,,,2,0,2,0,,,,,,,,,,,,,,,,,,,,,,,,,,,,,,,,,,,,,,,,,,,,,,,,,,,,,,,,,,,,,,,,,,,,,,,,,,,4,17.619572451571003,1095.0617950237356,None,1095.0617950237356,None,,,854499,2022_Apr_25_1031,palt,2021.1.2,50.360172375400325,
3,fogó,limonádé,,,,,,,,,3,0,3,0,0,0,0,2,,,,,,,,,,,,,1116.726567135891,None,1117.7257096881513,None,1117.7257096881513,None,,,,,,,,,,,,,,,,,,,,,,,,,,,,,,,,,,,,,,,1112.7136192694306,None,,,,,,,,,,,,,,,,,,,,,854499,2022_Apr_25_1031,palt,2021.1.2,50.360172375400325,
10,málna,dominó,,,,,,,,,3,0,3,0,0,1,1,9,,,,,,,,,,,,,1123.7088537008967,None,1124.7171240136959,None,1124.7171240136959,None,,,,,,,,,,,,,,,,,,,,,,,,,,,,,,,,,,,,,,,,,,,,,,,,,,,,,,,,,,,,,854499,2022_Apr_25_1031,palt,2021.1.2,50.360172375400325,
5,karton,hentes,,,,,,,,,3,0,3,0,0,2,2,4,,,,,,,,,,,,,1130.7090399942826,None,1131.71845730301,None,1131.71845730301,None,,,,,,,,,,,,,,,,,,,,,,,,,,,,,,,,,,,,,,,,,,,,,,,,,,,,,,,,,,,,,854499,2022_Apr_25_1031,palt,2021.1.2,50.360172375400325,
7,csavarhúzó,hering,,,,,,,,,3,0,3,0,0,3,3,6,,,,,,,,,,,,,1137.7207584478892,None,1138.740586423315,None,1138.740586423315,None,,,,,,,,,,,,,,,,,,,,,,,,,,,,,,,,,,,,,,,,,,,,,,,,,,,,,,,,,,,,,854499,2022_Apr_25_1031,palt,2021.1.2,50.360172375400325,
6,menta,triatlon,,,,,,,,,3,0,3,0,0,4,4,5,,,,,,,,,,,,,1144.7096526792739,None,1145.7354712821543,None,1145.7354712821543,None,,,,,,,,,,,,,,,,,,,,,,,,,,,,,,,,,,,,,,,,,,,,,,,,,,,,,,,,,,,,,854499,2022_Apr_25_1031,palt,2021.1.2,50.360172375400325,
2,kötény,tisztás,,,,,,,,,3,0,3,0,0,5,5,1,,,,,,,,,,,,,1151.7130159148946,None,1152.7307082014158,None,1152.7307082014158,None,,,,,,,,,,,,,,,,,,,,,,,,,,,,,,,,,,,,,,,,,,,,,,,,,,,,,,,,,,,,,854499,2022_Apr_25_1031,palt,2021.1.2,50.360172375400325,
9,szilva,kecske,,,,,,,,,3,0,3,0,0,6,6,8,,,,,,,,,,,,,1158.708787145093,None,1159.7181282569654,None,1159.7181282569654,None,,,,,,,,,,,,,,,,,,,,,,,,,,,,,,,,,,,,,,,,,,,,,,,,,,,,,,,,,,,,,854499,2022_Apr_25_1031,palt,2021.1.2,50.360172375400325,
4,mocsár,ananász,,,,,,,,,3,0,3,0,0,7,7,3,,,,,,,,,,,,,1165.7227775088977,None,1166.7339815560263,None,1166.7339815560263,None,,,,,,,,,,,,,,,,,,,,,,,,,,,,,,,,,,,,,,,,,,,,,,,,,,,,,,,,,,,,,854499,2022_Apr_25_1031,palt,2021.1.2,50.360172375400325,
1,bagoly,kirakó,,,,,,,,,3,0,3,0,0,8,8,0,,,,,,,,,,,,,1172.7070862448309,None,1173.7194494172,None,1173.7194494172,None,,,,,,,,,,,,,,,,,,,,,,,,,,,,,,,,,,,,,,,,,,,,,,,,,,,,,,,,,,,,,854499,2022_Apr_25_1031,palt,2021.1.2,50.360172375400325,
8,szalvéta,puska,,,,,,,,,3,0,3,0,0,9,9,7,,,,,,,,,,,,,1179.7086583881173,None,1180.718034332851,None,1180.718034332851,None,,,,,,,,,,,,,,,,,,,,,,,,,,,,,,,,,,,,,,,,,,,,,,,,,,,,,,,,,,,,,854499,2022_Apr_25_1031,palt,2021.1.2,50.360172375400325,
3,fogó,limonádé,,,,,,,,,3,0,3,0,,,,,0,0,0,2,,,,,,,,,1199.309755125083,None,,,,,,,,,,,fogó,1200.3050439828075,None,4,1.053930886555463,1200.3050439828075,None,1200.3050439828075,None,1200.3050439828075,None, limonádé,1201.3996667864267,None,1201.3996667864267,None,down,4.1497510694898665,1201.3996667864267,None,1205.6088800120633,None,4,1.920708935474977,1205.6088800120633,None,,,,,,,1195.3000495124143,None,1186.7062415482942,None,u,3.611370249418542,1186.7062415482942,None,1190.3572043033782,None,4,4.916361361043528,1190.3572043033782,None,,,,,,,,,854499,2022_Apr_25_1031,palt,2021.1.2,50.360172375400325,
4,mocsár,ananász,,,,,,,,,3,0,3,0,,,,,0,1,1,3,,,,,,,,,1207.5550794375595,None,,,,,,,,,,,ananász,1208.565863624448,None,4,0.983492030063644,1208.565863624448,None,1208.565863624448,None,1208.565863624448,None, mocsár,1209.5763019709848,None,1209.5763019709848,None,down,3.0451324828900397,1209.5763019709848,None,1212.6636891840026,None,4,1.4297601883299649,1212.6636891840026,None,,,,,,,,,,,,,,,,,,,,,,,,,,,,,854499,2022_Apr_25_1031,palt,2021.1.2,50.360172375400325,
9,szilva,kecske,,,,,,,,,3,0,3,0,,,,,0,2,2,8,,,,,,,,,1214.123187603429,None,,,,,,,,,,,szilva,1215.1383709921502,None,4,2.8431231253780425,1215.1383709921502,None,1215.1383709921502,None,1215.1383709921502,None, kecske,1218.0133192094509,None,1218.0133192094509,None,down,2.9440304588060826,1218.0133192094509,None,1220.9973331103101,None,4,0.79507712344639,1220.9973331103101,None,,,,,,,,,,,,,,,,,,,,,,,,,,,,,854499,2022_Apr_25_1031,palt,2021.1.2,50.360172375400325,
8,szalvéta,puska,,,,,,,,,3,0,3,0,,,,,0,3,3,7,,,,,,,,,1221.827312123496,None,,,,,,,,,,,szalvéta,1222.8487716445234,None,4,1.5465842662379146,1222.8487716445234,None,1222.8487716445234,None,1222.8487716445234,None, puska,1224.4278916548938,None,1224.4278916548938,None,down,4.001428768737242,1224.4278916548938,None,1228.4694752306677,None,4,1.199720964068547,1228.4694752306677,None,,,,,,,,,,,,,,,,,,,,,,,,,,,,,854499,2022_Apr_25_1031,palt,2021.1.2,50.360172375400325,
6,menta,triatlon,,,,,,,,,3,0,3,0,,,,,0,4,4,5,,,,,,,,,1229.6925671682693,None,,,,,,,,,,,triatlon,1230.7079219222069,None,4,1.8773625688627362,1230.7079219222069,None,1230.7079219222069,None,1230.7079219222069,None, menta,1232.6154351183213,None,1232.6154351183213,None,down,2.5658483849838376,1232.6154351183213,None,1235.209987945389,None,4,1.4611778603866696,1235.209987945389,None,,,,,,,,,,,,,,,,,,,,,,,,,,,,,854499,2022_Apr_25_1031,palt,2021.1.2,50.360172375400325,
5,karton,hentes,,,,,,,,,3,0,3,0,,,,,0,5,5,4,,,,,,,,,1236.7121637542732,None,,,,,,,,,,,hentes,1237.7378050829284,None,4,1.7953924853354692,1237.7378050829284,None,1237.7378050829284,None,1237.7378050829284,None, karton,1239.5786656283308,None,1239.5786656283308,None,down,2.802551568252966,1239.5786656283308,None,1242.4144443103578,None,4,1.702622975455597,1242.4144443103578,None,,,,,,,,,,,,,,,,,,,,,,,,,,,,,854499,2022_Apr_25_1031,palt,2021.1.2,50.360172375400325,
7,csavarhúzó,hering,,,,,,,,,3,0,3,0,,,,,0,6,6,6,,,,,,,,,1244.1546170937363,None,,,,,,,,,,,csavarhúzó,1245.169219209347,None,4,1.3380086063407362,1245.169219209347,None,1245.169219209347,None,1245.169219209347,None, hering,1246.5455809559207,None,1246.5455809559207,None,down,2.6514389077201486,1246.5455809559207,None,1249.2360908093397,None,4,0.7980830117594451,1249.2360908093397,None,,,,,,,,,,,,,,,,,,,,,,,,,,,,,854499,2022_Apr_25_1031,palt,2021.1.2,50.360172375400325,
1,bagoly,kirakó,,,,,,,,,3,0,3,0,,,,,0,7,7,0,,,,,,,,,1250.0643057876732,None,,,,,,,,,,,bagoly,1251.0881777943578,None,4,1.81987842079252,1251.0881777943578,None,1251.0881777943578,None,1251.0881777943578,None, kirakó,1252.9412522283383,None,1252.9412522283383,None,down,4.336271318141371,1252.9412522283383,None,1257.3117598798126,None,4,2.1461691956501454,1257.3117598798126,None,,,,,,,,,,,,,,,,,,,,,,,,,,,,,854499,2022_Apr_25_1031,palt,2021.1.2,50.360172375400325,
2,kötény,tisztás,,,,,,,,,3,0,3,0,,,,,0,8,8,1,,,,,,,,,1259.499059824273,None,,,,,,,,,,,tisztás,1260.516414045589,None,4,3.0914701202418655,1260.516414045589,None,1260.516414045589,None,1260.516414045589,None, kötény,1263.6519856587984,None,1263.6519856587984,None,down,3.5130315276328474,1263.6519856587984,None,1267.1897450857796,None,4,1.0731586175970733,1267.1897450857796,None,,,,,,,,,,,,,,,,,,,,,,,,,,,,,854499,2022_Apr_25_1031,palt,2021.1.2,50.360172375400325,
10,málna,dominó,,,,,,,,,3,0,3,0,,,,,0,9,9,9,,,,,,,,,1268.3005763592664,None,,,,,,,,,,,málna,1269.3245898743626,None,4,1.0963740872684866,1269.3245898743626,None,1269.3245898743626,None,1269.3245898743626,None, dominó,1270.447373479139,None,1270.447373479139,None,down,2.925466417800635,1270.447373479139,None,1273.4099272366147,None,4,0.9893517233431339,1273.4099272366147,None,,,,,,,,,,,,,,,,,,,,,,,,,,,,,854499,2022_Apr_25_1031,palt,2021.1.2,50.360172375400325,
,,,,,,,,,,,3,0,3,0,,,,,,,,,,,,,,,,,,,,,,,,,,,,,,,,,,,,,,,,,,,,,,,,,,,,,,,,,,,,,,,,,,,,,,,,,,,4,245.43888079584576,1274.4474636712112,None,1274.4474636712112,None,,,854499,2022_Apr_25_1031,palt,2021.1.2,50.360172375400325,
,,,,,,,,,,,,,,,,,,,,,,,,,,,,,,,,,,,,,,,,,,,,,,,,,,,,,,,,,,,,,,,,,,,,,,,,,,,,,,,,,,,,,,,,,,,,,,,1519.9233381934464,None,,,,,,
