itemno,wordA,wordB,enc_gyak.thisRepN,enc_gyak.thisTrialN,enc_gyak.thisN,enc_gyak.thisIndex,rec_gyak.thisRepN,rec_gyak.thisTrialN,rec_gyak.thisN,rec_gyak.thisIndex,repeat_task.thisRepN,repeat_task.thisTrialN,repeat_task.thisN,repeat_task.thisIndex,enc_loop.thisRepN,enc_loop.thisTrialN,enc_loop.thisN,enc_loop.thisIndex,test_loop.thisRepN,test_loop.thisTrialN,test_loop.thisN,test_loop.thisIndex,int.started,int.stopped,int_key.keys,int_key.rt,int_key.started,int_key.stopped,prepare_gyak_text.started,prepare_gyak_text.stopped,fix.started,fix.stopped,word1.started,word1.stopped,word2.started,word2.stopped,gykrec_inst.started,gykrec_inst.stopped,gyakrec_inst.keys,gyakrec_inst.rt,gyakrec_inst.started,gyakrec_inst.stopped,cueword,cueword1.started,cueword1.stopped,cue_resp.keys,cue_resp.rt,cue_resp.started,cue_resp.stopped,cue_cont_text.started,cue_cont_text.stopped,cue_space.started,cue_space.stopped,test_ansbox.text,test_ansbox.started,test_ansbox.stopped,ans_text.started,ans_text.stopped,ans_continue.keys,ans_continue.rt,ans_continue.started,ans_continue.stopped,feedback_text.started,feedback_text.stopped,feedback_cont.keys,feedback_cont.rt,feedback_cont.started,feedback_cont.stopped,main_prep.started,main_prep.stopped,main_prep_resp.keys,main_prep_resp.rt,main_prep_resp.started,main_prep_resp.stopped,preparation.started,preparation.stopped,break_text.started,break_text.stopped,key_resp.keys,key_resp.rt,key_resp.started,key_resp.stopped,test_instruction.started,test_instruction.stopped,test_i_key.keys,test_i_key.rt,test_i_key.started,test_i_key.stopped,rep_routine.keys,rep_routine.rt,rep_routine.started,rep_routine.stopped,encrep_textbox.started,encrep_textbox.stopped,Résztvevő kódja,date,expName,psychopyVersion,frameRate,
,,,,,,,,,,,,,,,,,,,,,,,18.520794172480237,None,4,135.17226529307663,18.520794172480237,None,,,,,,,,,,,,,,,,,,,,,,,,,,,,,,,,,,,,,,,,,,,,,,,,,,,,,,,,,,,,,,,,,,,878924,2022_May_04_1544,palt,2021.1.2,51.16214534858175,
1,sapka,beton,0,0,0,0,,,,,,,,,,,,,,,,,,,,,,,153.71793434786377,None,156.73486458178377,None,157.73160865990212,None,157.73160865990212,None,,,,,,,,,,,,,,,,,,,,,,,,,,,,,,,,,,,,,,,,,,,,,,,,,,,,,,,,,,,878924,2022_May_04_1544,palt,2021.1.2,51.16214534858175,
2,lepke,szintetizátor,0,1,1,1,,,,,,,,,,,,,,,,,,,,,,,,,163.7189948783489,None,164.74423114961246,None,164.74423114961246,None,,,,,,,,,,,,,,,,,,,,,,,,,,,,,,,,,,,,,,,,,,,,,,,,,,,,,,,,,,,878924,2022_May_04_1544,palt,2021.1.2,51.16214534858175,
3,majoránna,szikla,0,2,2,2,,,,,,,,,,,,,,,,,,,,,,,,,170.7235113075585,None,171.73351948079653,None,171.73351948079653,None,,,,,,,,,,,,,,,,,,,,,,,,,,,,,,,,,,,,,,,,,,,,,,,,,,,,,,,,,,,878924,2022_May_04_1544,palt,2021.1.2,51.16214534858175,
4,kard,harcsa,0,3,3,3,,,,,,,,,,,,,,,,,,,,,,,,,177.72423035342945,None,178.7423781758407,None,178.7423781758407,None,,,,,,,,,,,,,,,,,,,,,,,,,,,,,,,,,,,,,,,,,,,,,,,,,,,,,,,,,,,878924,2022_May_04_1544,palt,2021.1.2,51.16214534858175,
,,,,,,,,,,,,,,,,,,,,,,,,,,,,,,,,,,,,,184.7207299808506,None,4,9.569948671560269,184.7207299808506,None,,,,,,,,,,,,,,,,,,,,,,,,,,,,,,,,,,,,,,,,,,,,,,,,,,,,,878924,2022_May_04_1544,palt,2021.1.2,51.16214534858175,
4,kard,harcsa,,,,,0,0,0,3,,,,,,,,,,,,,,,,,,,,,194.33674361783778,None,,,,,,,,,,,kard,195.35755489568692,None,4,5.555909549468197,195.35755489568692,None,195.35755489568692,None,195.35755489568692,None, harcsa,200.97194166027475,None,200.97194166027475,None,down,2.354592874471564,200.97194166027475,None,203.37988294975366,None,4,9.869398626382463,203.37988294975366,None,,,,,,,,,,,,,,,,,,,,,,,,,,,878924,2022_May_04_1544,palt,2021.1.2,51.16214534858175,
1,sapka,beton,,,,,0,1,1,0,,,,,,,,,,,,,,,,,,,,,213.2797890881775,None,,,,,,,,,,,sapka,214.29884162702365,None,4,2.587370294961147,214.29884162702365,None,214.29884162702365,None,214.29884162702365,None, beton,216.91242257505655,None,216.91242257505655,None,down,8.701688949251547,216.91242257505655,None,225.64085586363217,None,4,4.233072565170005,225.64085586363217,None,,,,,,,,,,,,,,,,,,,,,,,,,,,878924,2022_May_04_1544,palt,2021.1.2,51.16214534858175,
3,majoránna,szikla,,,,,0,2,2,2,,,,,,,,,,,,,,,,,,,,,229.91735295322724,None,,,,,,,,,,,szikla,230.92284967337037,None,4,3.9050843883887865,230.92284967337037,None,230.92284967337037,None,230.92284967337037,None, majoránna,234.85634881438455,None,234.85634881438455,None,down,3.0615008155000396,234.85634881438455,None,237.9552732934244,None,4,2.1756589906290174,237.9552732934244,None,,,,,,,,,,,,,,,,,,,,,,,,,,,878924,2022_May_04_1544,palt,2021.1.2,51.16214534858175,
2,lepke,szintetizátor,,,,,0,3,3,1,,,,,,,,,,,,,,,,,,,,,240.15742781863082,None,,,,,,,,,,,lepke,241.16534758656053,None,4,8.41950200474821,241.16534758656053,None,241.16534758656053,None,241.16534758656053,None, szintetizátor,249.61579064570833,None,249.61579064570833,None,down,5.0220105170155875,249.61579064570833,None,254.67001516465098,None,4,7.319511086156126,254.67001516465098,None,,,,,,,,,,,,,,,,,,,,,,,,,,,878924,2022_May_04_1544,palt,2021.1.2,51.16214534858175,
,,,,,,,,,,,,,,,,,,,,,,,,,,,,,,,,,,,,,,,,,,,,,,,,,,,,,,,,,,,,,,,,,,,,,262.0342641535681,None,4,25.073410479410086,262.0342641535681,None,,,,,,,,,,,,,,,,,,,,,878924,2022_May_04_1544,palt,2021.1.2,51.16214534858175,
4,mocsár,ananász,,,,,,,,,0,0,0,0,0,0,0,3,,,,,,,,,,,,,291.1738165910356,None,292.1593240222428,None,292.1593240222428,None,,,,,,,,,,,,,,,,,,,,,,,,,,,,,,,,,,,,,,,287.1425502243801,None,,,,,,,,,,,,,,,,,,,878924,2022_May_04_1544,palt,2021.1.2,51.16214534858175,
8,szalvéta,puska,,,,,,,,,0,0,0,0,0,1,1,7,,,,,,,,,,,,,298.1526118906331,None,299.1731544592767,None,299.1731544592767,None,,,,,,,,,,,,,,,,,,,,,,,,,,,,,,,,,,,,,,,,,,,,,,,,,,,,,,,,,,,878924,2022_May_04_1544,palt,2021.1.2,51.16214534858175,
5,karton,hentes,,,,,,,,,0,0,0,0,0,2,2,4,,,,,,,,,,,,,305.15242404298624,None,306.1597609856399,None,306.1597609856399,None,,,,,,,,,,,,,,,,,,,,,,,,,,,,,,,,,,,,,,,,,,,,,,,,,,,,,,,,,,,878924,2022_May_04_1544,palt,2021.1.2,51.16214534858175,
1,bagoly,kirakó,,,,,,,,,0,0,0,0,0,3,3,0,,,,,,,,,,,,,312.15455723321065,None,313.1640074616298,None,313.1640074616298,None,,,,,,,,,,,,,,,,,,,,,,,,,,,,,,,,,,,,,,,,,,,,,,,,,,,,,,,,,,,878924,2022_May_04_1544,palt,2021.1.2,51.16214534858175,
3,fogó,limonádé,,,,,,,,,0,0,0,0,0,4,4,2,,,,,,,,,,,,,319.1522965305485,None,320.1611182158813,None,320.1611182158813,None,,,,,,,,,,,,,,,,,,,,,,,,,,,,,,,,,,,,,,,,,,,,,,,,,,,,,,,,,,,878924,2022_May_04_1544,palt,2021.1.2,51.16214534858175,
2,kötény,tisztás,,,,,,,,,0,0,0,0,0,5,5,1,,,,,,,,,,,,,326.1489752974012,None,327.15248500020243,None,327.15248500020243,None,,,,,,,,,,,,,,,,,,,,,,,,,,,,,,,,,,,,,,,,,,,,,,,,,,,,,,,,,,,878924,2022_May_04_1544,palt,2021.1.2,51.16214534858175,
10,málna,dominó,,,,,,,,,0,0,0,0,0,6,6,9,,,,,,,,,,,,,333.1523282531416,None,334.1521985636791,None,334.1521985636791,None,,,,,,,,,,,,,,,,,,,,,,,,,,,,,,,,,,,,,,,,,,,,,,,,,,,,,,,,,,,878924,2022_May_04_1544,palt,2021.1.2,51.16214534858175,
9,szilva,kecske,,,,,,,,,0,0,0,0,0,7,7,8,,,,,,,,,,,,,340.1520160031505,None,341.15910787304165,None,341.15910787304165,None,,,,,,,,,,,,,,,,,,,,,,,,,,,,,,,,,,,,,,,,,,,,,,,,,,,,,,,,,,,878924,2022_May_04_1544,palt,2021.1.2,51.16214534858175,
6,menta,triatlon,,,,,,,,,0,0,0,0,0,8,8,5,,,,,,,,,,,,,347.1398208356695,None,348.1633499949821,None,348.1633499949821,None,,,,,,,,,,,,,,,,,,,,,,,,,,,,,,,,,,,,,,,,,,,,,,,,,,,,,,,,,,,878924,2022_May_04_1544,palt,2021.1.2,51.16214534858175,
7,csavarhúzó,hering,,,,,,,,,0,0,0,0,0,9,9,6,,,,,,,,,,,,,354.1517137052724,None,355.17203825869365,None,355.17203825869365,None,,,,,,,,,,,,,,,,,,,,,,,,,,,,,,,,,,,,,,,,,,,,,,,,,,,,,,,,,,,878924,2022_May_04_1544,palt,2021.1.2,51.16214534858175,
6,menta,triatlon,,,,,,,,,0,0,0,0,,,,,0,0,0,5,,,,,,,,,372.93809705378953,None,,,,,,,,,,,menta,373.91895650018705,None,None,,373.91895650018705,None,373.91895650018705,None,373.91895650018705,None,,388.9297801312059,None,388.9297801312059,None,down,2.7460775922518224,388.9297801312059,None,391.72038694121875,None,4,2.3585155932232738,391.72038694121875,None,,,,,,,368.91148053784855,None,361.15178741369164,None,u,3.7403880484052934,361.15178741369164,None,364.94451963878237,None,4,3.9347867058822885,364.94451963878237,None,,,,,,,878924,2022_May_04_1544,palt,2021.1.2,51.16214534858175,
2,kötény,tisztás,,,,,,,,,0,0,0,0,,,,,0,1,1,1,,,,,,,,,394.1088051398401,None,,,,,,,,,,,kötény,395.1178759409231,None,4,4.9959021848626435,395.1178759409231,None,395.1178759409231,None,395.1178759409231,None,tisztás ,400.1516726525151,None,400.1516726525151,None,down,2.468133391754236,400.1516726525151,None,402.65478333458304,None,4,2.7218984304345213,402.65478333458304,None,,,,,,,,,,,,,,,,,,,,,,,,,,,878924,2022_May_04_1544,palt,2021.1.2,51.16214534858175,
8,szalvéta,puska,,,,,,,,,0,0,0,0,,,,,0,2,2,7,,,,,,,,,405.4050436465768,None,,,,,,,,,,,puska,406.4294342925423,None,4,10.421178949123714,406.4294342925423,None,406.4294342925423,None,406.4294342925423,None, ,416.8861587399733,None,416.8861587399733,None,down,1.5414004973717965,416.8861587399733,None,418.47479327430483,None,4,2.885016414860729,418.47479327430483,None,,,,,,,,,,,,,,,,,,,,,,,,,,,878924,2022_May_04_1544,palt,2021.1.2,51.16214534858175,
4,mocsár,ananász,,,,,,,,,0,0,0,0,,,,,0,3,3,3,,,,,,,,,421.3886430559214,None,,,,,,,,,,,mocsár,422.4045289316564,None,None,,422.4045289316564,None,422.4045289316564,None,422.4045289316564,None, ,437.40934268257115,None,437.40934268257115,None,down,1.8339489179197699,437.40934268257115,None,439.2642310127849,None,4,1.8010687410715036,439.2642310127849,None,,,,,,,,,,,,,,,,,,,,,,,,,,,878924,2022_May_04_1544,palt,2021.1.2,51.16214534858175,
7,csavarhúzó,hering,,,,,,,,,0,0,0,0,,,,,0,4,4,6,,,,,,,,,441.0934772088658,None,,,,,,,,,,,hering,442.10483141610166,None,4,11.63757972640451,442.10483141610166,None,442.10483141610166,None,442.10483141610166,None, ,453.77507485914975,None,453.77507485914975,None,down,1.4520298117422499,453.77507485914975,None,455.25908759544836,None,4,1.6342084212810732,455.25908759544836,None,,,,,,,,,,,,,,,,,,,,,,,,,,,878924,2022_May_04_1544,palt,2021.1.2,51.16214534858175,
10,málna,dominó,,,,,,,,,0,0,0,0,,,,,0,5,5,9,,,,,,,,,456.9269443784724,None,,,,,,,,,,,dominó,457.9527127809706,None,4,14.929452641867101,457.9527127809706,None,457.9527127809706,None,457.9527127809706,None, ,472.91827197599923,None,472.91827197599923,None,down,2.1005510404356755,472.91827197599923,None,475.0441920872545,None,4,1.6985869752825238,475.0441920872545,None,,,,,,,,,,,,,,,,,,,,,,,,,,,878924,2022_May_04_1544,palt,2021.1.2,51.16214534858175,
1,bagoly,kirakó,,,,,,,,,0,0,0,0,,,,,0,6,6,0,,,,,,,,,476.77303341572406,None,,,,,,,,,,,bagoly,477.80828563537216,None,4,10.319415607315022,477.80828563537216,None,477.80828563537216,None,477.80828563537216,None, ,488.1652642369154,None,488.1652642369154,None,down,1.8772390877711587,488.1652642369154,None,490.0838605921599,None,4,1.981649401714094,490.0838605921599,None,,,,,,,,,,,,,,,,,,,,,,,,,,,878924,2022_May_04_1544,palt,2021.1.2,51.16214534858175,
9,szilva,kecske,,,,,,,,,0,0,0,0,,,,,0,7,7,8,,,,,,,,,492.0878930960316,None,,,,,,,,,,,kecske,493.0959089648095,None,4,7.5758742690086365,493.0959089648095,None,493.0959089648095,None,493.0959089648095,None, ,500.7079535431694,None,500.7079535431694,None,down,1.5903942062868737,500.7079535431694,None,502.3350029172143,None,4,1.2995693811099045,502.3350029172143,None,,,,,,,,,,,,,,,,,,,,,,,,,,,878924,2022_May_04_1544,palt,2021.1.2,51.16214534858175,
5,karton,hentes,,,,,,,,,0,0,0,0,,,,,0,8,8,4,,,,,,,,,503.6556177636958,None,,,,,,,,,,,hentes,504.6621607079869,None,4,10.264163213432766,504.6621607079869,None,504.6621607079869,None,504.6621607079869,None, ,514.9594700084417,None,514.9594700084417,None,down,1.5308381114155054,514.9594700084417,None,516.5202533330303,None,4,1.3212754231644794,516.5202533330303,None,,,,,,,,,,,,,,,,,,,,,,,,,,,878924,2022_May_04_1544,palt,2021.1.2,51.16214534858175,
3,fogó,limonádé,,,,,,,,,0,0,0,0,,,,,0,9,9,2,,,,,,,,,517.8707151147537,None,,,,,,,,,,,limonádé,518.8842379668495,None,4,10.663072266615927,518.8842379668495,None,518.8842379668495,None,518.8842379668495,None, ,529.5853388037067,None,529.5853388037067,None,down,1.4487001814995892,529.5853388037067,None,531.0593318595784,None,4,1.247622981085442,531.0593318595784,None,,,,,,,,,,,,,,,,,,,,,,,,,,,878924,2022_May_04_1544,palt,2021.1.2,51.16214534858175,
,,,,,,,,,,,0,0,0,0,,,,,,,,,,,,,,,,,,,,,,,,,,,,,,,,,,,,,,,,,,,,,,,,,,,,,,,,,,,,,,,,,,,,,,,,,,,4,66.37870983511675,532.3934686250868,None,532.3934686250868,None,878924,2022_May_04_1544,palt,2021.1.2,51.16214534858175,
3,fogó,limonádé,,,,,,,,,1,0,1,0,0,0,0,2,,,,,,,,,,,,,602.8364951240364,None,603.815869827813,None,603.815869827813,None,,,,,,,,,,,,,,,,,,,,,,,,,,,,,,,,,,,,,,,598.8117309599183,None,,,,,,,,,,,,,,,,,,,878924,2022_May_04_1544,palt,2021.1.2,51.16214534858175,
6,menta,triatlon,,,,,,,,,1,0,1,0,0,1,1,5,,,,,,,,,,,,,609.8178643092979,None,610.8255498897051,None,610.8255498897051,None,,,,,,,,,,,,,,,,,,,,,,,,,,,,,,,,,,,,,,,,,,,,,,,,,,,,,,,,,,,878924,2022_May_04_1544,palt,2021.1.2,51.16214534858175,
8,szalvéta,puska,,,,,,,,,1,0,1,0,0,2,2,7,,,,,,,,,,,,,616.8151218583807,None,617.8264539841912,None,617.8264539841912,None,,,,,,,,,,,,,,,,,,,,,,,,,,,,,,,,,,,,,,,,,,,,,,,,,,,,,,,,,,,878924,2022_May_04_1544,palt,2021.1.2,51.16214534858175,
5,karton,hentes,,,,,,,,,1,0,1,0,0,3,3,4,,,,,,,,,,,,,623.8169029897545,None,624.837493764353,None,624.837493764353,None,,,,,,,,,,,,,,,,,,,,,,,,,,,,,,,,,,,,,,,,,,,,,,,,,,,,,,,,,,,878924,2022_May_04_1544,palt,2021.1.2,51.16214534858175,
1,bagoly,kirakó,,,,,,,,,1,0,1,0,0,4,4,0,,,,,,,,,,,,,630.8146746317507,None,631.8799644333776,None,631.8799644333776,None,,,,,,,,,,,,,,,,,,,,,,,,,,,,,,,,,,,,,,,,,,,,,,,,,,,,,,,,,,,878924,2022_May_04_1544,palt,2021.1.2,51.16214534858175,
9,szilva,kecske,,,,,,,,,1,0,1,0,0,5,5,8,,,,,,,,,,,,,637.8147548713023,None,638.8352246645372,None,638.8352246645372,None,,,,,,,,,,,,,,,,,,,,,,,,,,,,,,,,,,,,,,,,,,,,,,,,,,,,,,,,,,,878924,2022_May_04_1544,palt,2021.1.2,51.16214534858175,
7,csavarhúzó,hering,,,,,,,,,1,0,1,0,0,6,6,6,,,,,,,,,,,,,644.8165910507669,None,645.8348499023123,None,645.8348499023123,None,,,,,,,,,,,,,,,,,,,,,,,,,,,,,,,,,,,,,,,,,,,,,,,,,,,,,,,,,,,878924,2022_May_04_1544,palt,2021.1.2,51.16214534858175,
10,málna,dominó,,,,,,,,,1,0,1,0,0,7,7,9,,,,,,,,,,,,,651.8157746599754,None,652.8250550791854,None,652.8250550791854,None,,,,,,,,,,,,,,,,,,,,,,,,,,,,,,,,,,,,,,,,,,,,,,,,,,,,,,,,,,,878924,2022_May_04_1544,palt,2021.1.2,51.16214534858175,
2,kötény,tisztás,,,,,,,,,1,0,1,0,0,8,8,1,,,,,,,,,,,,,658.8145962582203,None,659.8242763201124,None,659.8242763201124,None,,,,,,,,,,,,,,,,,,,,,,,,,,,,,,,,,,,,,,,,,,,,,,,,,,,,,,,,,,,878924,2022_May_04_1544,palt,2021.1.2,51.16214534858175,
4,mocsár,ananász,,,,,,,,,1,0,1,0,0,9,9,3,,,,,,,,,,,,,665.8185914413771,None,666.8326333625009,None,666.8326333625009,None,,,,,,,,,,,,,,,,,,,,,,,,,,,,,,,,,,,,,,,,,,,,,,,,,,,,,,,,,,,878924,2022_May_04_1544,palt,2021.1.2,51.16214534858175,
3,fogó,limonádé,,,,,,,,,1,0,1,0,,,,,0,0,0,2,,,,,,,,,679.4530377822812,None,,,,,,,,,,,limonádé,680.4496443957323,None,4,3.696280865755398,680.4496443957323,None,680.4496443957323,None,680.4496443957323,None, fogó,684.1915871631936,None,684.1915871631936,None,down,2.568346679676324,684.1915871631936,None,686.8040683939471,None,4,1.270794483483769,686.8040683939471,None,,,,,,,675.4354811822996,None,672.8142976924428,None,u,1.8500437896582298,672.8142976924428,None,674.6859274758608,None,4,0.7205337361083366,674.6859274758608,None,,,,,,,878924,2022_May_04_1544,palt,2021.1.2,51.16214534858175,
1,bagoly,kirakó,,,,,,,,,1,0,1,0,,,,,0,1,1,0,,,,,,,,,688.110217418056,None,,,,,,,,,,,bagoly,689.1160721061169,None,4,5.017718323098961,689.1160721061169,None,689.1160721061169,None,689.1160721061169,None, kirakó,694.1756425073254,None,694.1756425073254,None,down,3.7361269551329315,694.1756425073254,None,697.9476810148335,None,4,1.6011540810577571,697.9476810148335,None,,,,,,,,,,,,,,,,,,,,,,,,,,,878924,2022_May_04_1544,palt,2021.1.2,51.16214534858175,
6,menta,triatlon,,,,,,,,,1,0,1,0,,,,,0,2,2,5,,,,,,,,,699.5735743795522,None,,,,,,,,,,,menta,700.5810540739913,None,4,2.85169834154658,700.5810540739913,None,700.5810540739913,None,700.5810540739913,None, triatlon,703.461519849021,None,703.461519849021,None,down,2.946296727110166,703.461519849021,None,706.4308164031827,None,4,1.4432099924888462,706.4308164031827,None,,,,,,,,,,,,,,,,,,,,,,,,,,,878924,2022_May_04_1544,palt,2021.1.2,51.16214534858175,
9,szilva,kecske,,,,,,,,,1,0,1,0,,,,,0,3,3,8,,,,,,,,,707.9017273895442,None,,,,,,,,,,,kecske,708.9083014344797,None,None,,708.9083014344797,None,708.9083014344797,None,708.9083014344797,None, ,723.910139790969,None,723.910139790969,None,down,3.121373825473711,723.910139790969,None,727.0652285334072,None,4,1.752111419744324,727.0652285334072,None,,,,,,,,,,,,,,,,,,,,,,,,,,,878924,2022_May_04_1544,palt,2021.1.2,51.16214534858175,
2,kötény,tisztás,,,,,,,,,1,0,1,0,,,,,0,4,4,1,,,,,,,,,728.8513764503878,None,,,,,,,,,,,kötény,729.8577744659269,None,4,5.362715107330587,729.8577744659269,None,729.8577744659269,None,729.8577744659269,None, tisztás,735.2468199636205,None,735.2468199636205,None,down,3.832665707101114,735.2468199636205,None,739.1102478966932,None,4,0.7411497021093965,739.1102478966932,None,,,,,,,,,,,,,,,,,,,,,,,,,,,878924,2022_May_04_1544,palt,2021.1.2,51.16214534858175,
8,szalvéta,puska,,,,,,,,,1,0,1,0,,,,,0,5,5,7,,,,,,,,,739.884396268928,None,,,,,,,,,,,puska,740.8997892001062,None,4,2.642534985090606,740.8997892001062,None,740.8997892001062,None,740.8997892001062,None, szalvéta,743.5748896239675,None,743.5748896239675,None,down,3.0082475682138465,743.5748896239675,None,746.6179990993114,None,4,1.4401820380589925,746.6179990993114,None,,,,,,,,,,,,,,,,,,,,,,,,,,,878924,2022_May_04_1544,palt,2021.1.2,51.16214534858175,
5,karton,hentes,,,,,,,,,1,0,1,0,,,,,0,6,6,4,,,,,,,,,748.0857524417224,None,,,,,,,,,,,hentes,749.0973140899441,None,4,2.4818671058746986,749.0973140899441,None,749.0973140899441,None,749.0973140899441,None, karton,751.6107912241714,None,751.6107912241714,None,down,2.6202358545269817,751.6107912241714,None,754.2645028320258,None,4,1.0876190997078083,754.2645028320258,None,,,,,,,,,,,,,,,,,,,,,,,,,,,878924,2022_May_04_1544,palt,2021.1.2,51.16214534858175,
7,csavarhúzó,hering,,,,,,,,,1,0,1,0,,,,,0,7,7,6,,,,,,,,,755.384150885162,None,,,,,,,,,,,hering,756.3980475665303,None,4,13.681927316647489,756.3980475665303,None,756.3980475665303,None,756.3980475665303,None, ,770.108706239902,None,770.108706239902,None,down,1.3543698831344955,770.108706239902,None,771.4937836119789,None,4,1.1070358266006224,771.4937836119789,None,,,,,,,,,,,,,,,,,,,,,,,,,,,878924,2022_May_04_1544,palt,2021.1.2,51.16214534858175,
4,mocsár,ananász,,,,,,,,,1,0,1,0,,,,,0,8,8,3,,,,,,,,,772.6464499286376,None,,,,,,,,,,,mocsár,773.6625077907229,None,4,2.293194691010285,773.6625077907229,None,773.6625077907229,None,773.6625077907229,None, ananász,775.9967244847794,None,775.9967244847794,None,down,2.666105819225777,775.9967244847794,None,778.7040267813718,None,4,0.9037937134853564,778.7040267813718,None,,,,,,,,,,,,,,,,,,,,,,,,,,,878924,2022_May_04_1544,palt,2021.1.2,51.16214534858175,
10,málna,dominó,,,,,,,,,1,0,1,0,,,,,0,9,9,9,,,,,,,,,779.6394638007623,None,,,,,,,,,,,dominó,780.6503092021449,None,None,,780.6503092021449,None,780.6503092021449,None,780.6503092021449,None, ,795.6581571276765,None,795.6581571276765,None,down,3.5644248938770033,795.6581571276765,None,799.2632675161585,None,4,1.1012243684381247,799.2632675161585,None,,,,,,,,,,,,,,,,,,,,,,,,,,,878924,2022_May_04_1544,palt,2021.1.2,51.16214534858175,
,,,,,,,,,,,1,0,1,0,,,,,,,,,,,,,,,,,,,,,,,,,,,,,,,,,,,,,,,,,,,,,,,,,,,,,,,,,,,,,,,,,,,,,,,,,,,4,7.122476341784932,800.4029642604291,None,800.4029642604291,None,878924,2022_May_04_1544,palt,2021.1.2,51.16214534858175,
6,menta,triatlon,,,,,,,,,2,0,2,0,0,0,0,5,,,,,,,,,,,,,811.5757728810422,None,812.5797058629687,None,812.5797058629687,None,,,,,,,,,,,,,,,,,,,,,,,,,,,,,,,,,,,,,,,807.5530426961486,None,,,,,,,,,,,,,,,,,,,878924,2022_May_04_1544,palt,2021.1.2,51.16214534858175,
1,bagoly,kirakó,,,,,,,,,2,0,2,0,0,1,1,0,,,,,,,,,,,,,818.562398689799,None,819.5692215395393,None,819.5692215395393,None,,,,,,,,,,,,,,,,,,,,,,,,,,,,,,,,,,,,,,,,,,,,,,,,,,,,,,,,,,,878924,2022_May_04_1544,palt,2021.1.2,51.16214534858175,
8,szalvéta,puska,,,,,,,,,2,0,2,0,0,2,2,7,,,,,,,,,,,,,825.5642693908885,None,826.5739917496103,None,826.5739917496103,None,,,,,,,,,,,,,,,,,,,,,,,,,,,,,,,,,,,,,,,,,,,,,,,,,,,,,,,,,,,878924,2022_May_04_1544,palt,2021.1.2,51.16214534858175,
2,kötény,tisztás,,,,,,,,,2,0,2,0,0,3,3,1,,,,,,,,,,,,,832.5664060021518,None,833.5614700258593,None,833.5614700258593,None,,,,,,,,,,,,,,,,,,,,,,,,,,,,,,,,,,,,,,,,,,,,,,,,,,,,,,,,,,,878924,2022_May_04_1544,palt,2021.1.2,51.16214534858175,
5,karton,hentes,,,,,,,,,2,0,2,0,0,4,4,4,,,,,,,,,,,,,839.5623604360735,None,840.5659130576532,None,840.5659130576532,None,,,,,,,,,,,,,,,,,,,,,,,,,,,,,,,,,,,,,,,,,,,,,,,,,,,,,,,,,,,878924,2022_May_04_1544,palt,2021.1.2,51.16214534858175,
4,mocsár,ananász,,,,,,,,,2,0,2,0,0,5,5,3,,,,,,,,,,,,,846.566206647316,None,847.5761212077341,None,847.5761212077341,None,,,,,,,,,,,,,,,,,,,,,,,,,,,,,,,,,,,,,,,,,,,,,,,,,,,,,,,,,,,878924,2022_May_04_1544,palt,2021.1.2,51.16214534858175,
7,csavarhúzó,hering,,,,,,,,,2,0,2,0,0,6,6,6,,,,,,,,,,,,,853.5617670366191,None,854.5713789882138,None,854.5713789882138,None,,,,,,,,,,,,,,,,,,,,,,,,,,,,,,,,,,,,,,,,,,,,,,,,,,,,,,,,,,,878924,2022_May_04_1544,palt,2021.1.2,51.16214534858175,
10,málna,dominó,,,,,,,,,2,0,2,0,0,7,7,9,,,,,,,,,,,,,860.5663534421474,None,861.5618668695097,None,861.5618668695097,None,,,,,,,,,,,,,,,,,,,,,,,,,,,,,,,,,,,,,,,,,,,,,,,,,,,,,,,,,,,878924,2022_May_04_1544,palt,2021.1.2,51.16214534858175,
9,szilva,kecske,,,,,,,,,2,0,2,0,0,8,8,8,,,,,,,,,,,,,867.56180840038,None,868.5669571048347,None,868.5669571048347,None,,,,,,,,,,,,,,,,,,,,,,,,,,,,,,,,,,,,,,,,,,,,,,,,,,,,,,,,,,,878924,2022_May_04_1544,palt,2021.1.2,51.16214534858175,
3,fogó,limonádé,,,,,,,,,2,0,2,0,0,9,9,2,,,,,,,,,,,,,874.5619607933331,None,875.5695561820175,None,875.5695561820175,None,,,,,,,,,,,,,,,,,,,,,,,,,,,,,,,,,,,,,,,,,,,,,,,,,,,,,,,,,,,878924,2022_May_04_1544,palt,2021.1.2,51.16214534858175,
3,fogó,limonádé,,,,,,,,,2,0,2,0,,,,,0,0,0,2,,,,,,,,,898.7499452629709,None,,,,,,,,,,,limonádé,899.7470354907564,None,4,3.6464645459200256,899.7470354907564,None,899.7470354907564,None,899.7470354907564,None, fogó,903.4323872945388,None,903.4323872945388,None,down,2.7486483679385856,903.4323872945388,None,906.2258755752118,None,4,2.957283014256973,906.2258755752118,None,,,,,,,894.7319862212171,None,881.5657743489719,None,u,1.6880031299660914,881.5657743489719,None,883.2878419666667,None,4,11.420463946356904,883.2878419666667,None,,,,,,,878924,2022_May_04_1544,palt,2021.1.2,51.16214534858175,
7,csavarhúzó,hering,,,,,,,,,2,0,2,0,,,,,0,1,1,6,,,,,,,,,909.2160132637946,None,,,,,,,,,,,hering,910.2304103537463,None,4,2.199664922140073,910.2304103537463,None,910.2304103537463,None,910.2304103537463,None, csavarhúzó,912.4598699621856,None,912.4598699621856,None,down,3.5771304222289473,912.4598699621856,None,916.0643309701118,None,4,0.9478349628043361,916.0643309701118,None,,,,,,,,,,,,,,,,,,,,,,,,,,,878924,2022_May_04_1544,palt,2021.1.2,51.16214534858175,
5,karton,hentes,,,,,,,,,2,0,2,0,,,,,0,2,2,4,,,,,,,,,917.0323321842588,None,,,,,,,,,,,hentes,918.0389127603266,None,4,2.0250664619961753,918.0389127603266,None,918.0389127603266,None,918.0389127603266,None, karton,920.0947417592979,None,920.0947417592979,None,down,2.6302766834269278,920.0947417592979,None,922.7457948878291,None,4,0.6941358573385514,922.7457948878291,None,,,,,,,,,,,,,,,,,,,,,,,,,,,878924,2022_May_04_1544,palt,2021.1.2,51.16214534858175,
4,mocsár,ananász,,,,,,,,,2,0,2,0,,,,,0,3,3,3,,,,,,,,,923.4657090998953,None,,,,,,,,,,,mocsár,924.4730833633221,None,4,1.144901740772184,924.4730833633221,None,924.4730833633221,None,924.4730833633221,None, ananász,925.6507990366081,None,925.6507990366081,None,down,4.161961042147595,925.6507990366081,None,929.8507933141082,None,4,0.5939359427429736,929.8507933141082,None,,,,,,,,,,,,,,,,,,,,,,,,,,,878924,2022_May_04_1544,palt,2021.1.2,51.16214534858175,
6,menta,triatlon,,,,,,,,,2,0,2,0,,,,,0,4,4,5,,,,,,,,,930.46724018245,None,,,,,,,,,,,menta,931.4764391180943,None,4,2.383361240965314,931.4764391180943,None,931.4764391180943,None,931.4764391180943,None, triatlon,933.8946949217934,None,933.8946949217934,None,down,3.34206430852646,933.8946949217934,None,937.2646881915862,None,4,0.493062389024999,937.2646881915862,None,,,,,,,,,,,,,,,,,,,,,,,,,,,878924,2022_May_04_1544,palt,2021.1.2,51.16214534858175,
9,szilva,kecske,,,,,,,,,2,0,2,0,,,,,0,5,5,8,,,,,,,,,937.7863939226954,None,,,,,,,,,,,kecske,938.8026648238301,None,None,,938.8026648238301,None,938.8026648238301,None,938.8026648238301,None, 4,953.8041221979656,None,953.8041221979656,None,down,2.520365917182062,953.8041221979656,None,956.3564051064895,None,4,3.2313240894000046,956.3564051064895,None,,,,,,,,,,,,,,,,,,,,,,,,,,,878924,2022_May_04_1544,palt,2021.1.2,51.16214534858175,
1,bagoly,kirakó,,,,,,,,,2,0,2,0,,,,,0,6,6,0,,,,,,,,,959.6152491842513,None,,,,,,,,,,,bagoly,960.6225251696887,None,4,2.3598756224964745,960.6225251696887,None,960.6225251696887,None,960.6225251696887,None, kirakó,963.0159269284923,None,963.0159269284923,None,down,2.892409960681107,963.0159269284923,None,965.9398330893018,None,4,1.2967961405520327,965.9398330893018,None,,,,,,,,,,,,,,,,,,,,,,,,,,,878924,2022_May_04_1544,palt,2021.1.2,51.16214534858175,
2,kötény,tisztás,,,,,,,,,2,0,2,0,,,,,0,7,7,1,,,,,,,,,967.2647566129453,None,,,,,,,,,,,kötény,968.2715782186133,None,4,3.586853713961318,968.2715782186133,None,968.2715782186133,None,968.2715782186133,None, tisztás,971.8881466903258,None,971.8881466903258,None,down,3.428054047864862,971.8881466903258,None,975.3379543642513,None,4,1.8551803648588248,975.3379543642513,None,,,,,,,,,,,,,,,,,,,,,,,,,,,878924,2022_May_04_1544,palt,2021.1.2,51.16214534858175,
10,málna,dominó,,,,,,,,,2,0,2,0,,,,,0,8,8,9,,,,,,,,,977.2368693265016,None,,,,,,,,,,,dominó,978.2584313728148,None,4,4.299746343458537,978.2584313728148,None,978.2584313728148,None,978.2584313728148,None, málna,982.5879580962937,None,982.5879580962937,None,down,2.3122226604027674,982.5879580962937,None,984.9286741938558,None,4,1.2732797325006686,984.9286741938558,None,,,,,,,,,,,,,,,,,,,,,,,,,,,878924,2022_May_04_1544,palt,2021.1.2,51.16214534858175,
8,szalvéta,puska,,,,,,,,,2,0,2,0,,,,,0,9,9,7,,,,,,,,,986.2332625898416,None,,,,,,,,,,,puska,987.2473909706459,None,4,2.3996685298043303,987.2473909706459,None,987.2473909706459,None,987.2473909706459,None, szalvéta,989.6778441187926,None,989.6778441187926,None,down,3.878101507376414,989.6778441187926,None,993.5995604863274,None,4,0.6835022511077113,993.5995604863274,None,,,,,,,,,,,,,,,,,,,,,,,,,,,878924,2022_May_04_1544,palt,2021.1.2,51.16214534858175,
,,,,,,,,,,,2,0,2,0,,,,,,,,,,,,,,,,,,,,,,,,,,,,,,,,,,,,,,,,,,,,,,,,,,,,,,,,,,,,,,,,,,,,,,,,,,,4,27.72264484484913,994.3580273137777,None,994.3580273137777,None,878924,2022_May_04_1544,palt,2021.1.2,51.16214534858175,
2,kötény,tisztás,,,,,,,,,3,0,3,0,0,0,0,1,,,,,,,,,,,,,1026.1344793075114,None,1027.1103514616843,None,1027.1103514616843,None,,,,,,,,,,,,,,,,,,,,,,,,,,,,,,,,,,,,,,,1022.108306286158,None,,,,,,,,,,,,,,,,,,,878924,2022_May_04_1544,palt,2021.1.2,51.16214534858175,
10,málna,dominó,,,,,,,,,3,0,3,0,0,1,1,9,,,,,,,,,,,,,1033.1098554070923,None,1034.1095966501161,None,1034.1095966501161,None,,,,,,,,,,,,,,,,,,,,,,,,,,,,,,,,,,,,,,,,,,,,,,,,,,,,,,,,,,,878924,2022_May_04_1544,palt,2021.1.2,51.16214534858175,
3,fogó,limonádé,,,,,,,,,3,0,3,0,0,2,2,2,,,,,,,,,,,,,1040.1097232295433,None,1041.1095450231223,None,1041.1095450231223,None,,,,,,,,,,,,,,,,,,,,,,,,,,,,,,,,,,,,,,,,,,,,,,,,,,,,,,,,,,,878924,2022_May_04_1544,palt,2021.1.2,51.16214534858175,
1,bagoly,kirakó,,,,,,,,,3,0,3,0,0,3,3,0,,,,,,,,,,,,,1047.1095832768478,None,1048.1128099641646,None,1048.1128099641646,None,,,,,,,,,,,,,,,,,,,,,,,,,,,,,,,,,,,,,,,,,,,,,,,,,,,,,,,,,,,878924,2022_May_04_1544,palt,2021.1.2,51.16214534858175,
9,szilva,kecske,,,,,,,,,3,0,3,0,0,4,4,8,,,,,,,,,,,,,1054.11947482283,None,1055.1096911959467,None,1055.1096911959467,None,,,,,,,,,,,,,,,,,,,,,,,,,,,,,,,,,,,,,,,,,,,,,,,,,,,,,,,,,,,878924,2022_May_04_1544,palt,2021.1.2,51.16214534858175,
7,csavarhúzó,hering,,,,,,,,,3,0,3,0,0,5,5,6,,,,,,,,,,,,,1061.1140375048271,None,1062.1262031267397,None,1062.1262031267397,None,,,,,,,,,,,,,,,,,,,,,,,,,,,,,,,,,,,,,,,,,,,,,,,,,,,,,,,,,,,878924,2022_May_04_1544,palt,2021.1.2,51.16214534858175,
8,szalvéta,puska,,,,,,,,,3,0,3,0,0,6,6,7,,,,,,,,,,,,,1068.1104786631186,None,1069.1111115603708,None,1069.1111115603708,None,,,,,,,,,,,,,,,,,,,,,,,,,,,,,,,,,,,,,,,,,,,,,,,,,,,,,,,,,,,878924,2022_May_04_1544,palt,2021.1.2,51.16214534858175,
5,karton,hentes,,,,,,,,,3,0,3,0,0,7,7,4,,,,,,,,,,,,,1075.1093969842186,None,1076.12004800688,None,1076.12004800688,None,,,,,,,,,,,,,,,,,,,,,,,,,,,,,,,,,,,,,,,,,,,,,,,,,,,,,,,,,,,878924,2022_May_04_1544,palt,2021.1.2,51.16214534858175,
4,mocsár,ananász,,,,,,,,,3,0,3,0,0,8,8,3,,,,,,,,,,,,,1082.1131856594002,None,1083.1244742443669,None,1083.1244742443669,None,,,,,,,,,,,,,,,,,,,,,,,,,,,,,,,,,,,,,,,,,,,,,,,,,,,,,,,,,,,878924,2022_May_04_1544,palt,2021.1.2,51.16214534858175,
6,menta,triatlon,,,,,,,,,3,0,3,0,0,9,9,5,,,,,,,,,,,,,1089.1090240880148,None,1090.1215094241197,None,1090.1215094241197,None,,,,,,,,,,,,,,,,,,,,,,,,,,,,,,,,,,,,,,,,,,,,,,,,,,,,,,,,,,,878924,2022_May_04_1544,palt,2021.1.2,51.16214534858175,
1,bagoly,kirakó,,,,,,,,,3,0,3,0,,,,,0,0,0,0,,,,,,,,,1102.2454170155106,None,,,,,,,,,,,bagoly,1103.2256886605755,None,4,2.2887062523514032,1103.2256886605755,None,1103.2256886605755,None,1103.2256886605755,None, kirakó,1105.5391214453848,None,1105.5391214453848,None,down,3.087377448042389,1105.5391214453848,None,1108.6553061356535,None,4,1.3581818837556057,1108.6553061356535,None,,,,,,,1098.2182257605018,None,1096.1087046848843,None,u,1.4943011259310879,1096.1087046848843,None,1097.6348702420946,None,4,0.5527329341857694,1097.6348702420946,None,,,,,,,878924,2022_May_04_1544,palt,2021.1.2,51.16214534858175,
2,kötény,tisztás,,,,,,,,,3,0,3,0,,,,,0,1,1,1,,,,,,,,,1110.0530955671566,None,,,,,,,,,,,kötény,1111.0757769240881,None,4,1.767505905998405,1111.0757769240881,None,1111.0757769240881,None,1111.0757769240881,None, tisztás,1112.8875573339756,None,1112.8875573339756,None,down,3.866689453017898,1112.8875573339756,None,1116.7932565811789,None,4,0.3871682654134929,1116.7932565811789,None,,,,,,,,,,,,,,,,,,,,,,,,,,,878924,2022_May_04_1544,palt,2021.1.2,51.16214534858175,
8,szalvéta,puska,,,,,,,,,3,0,3,0,,,,,0,2,2,7,,,,,,,,,1117.2131560516427,None,,,,,,,,,,,puska,1118.220830124803,None,4,1.1664951986749656,1118.220830124803,None,1118.220830124803,None,1118.220830124803,None, szalvéta,1119.4296513746958,None,1119.4296513746958,None,down,3.0365435166168027,1119.4296513746958,None,1122.504182719742,None,4,0.3431015136302449,1122.504182719742,None,,,,,,,,,,,,,,,,,,,,,,,,,,,878924,2022_May_04_1544,palt,2021.1.2,51.16214534858175,
7,csavarhúzó,hering,,,,,,,,,3,0,3,0,,,,,0,3,3,6,,,,,,,,,1122.8794948142604,None,,,,,,,,,,,hering,1123.8925626645796,None,4,1.73168485640781,1123.8925626645796,None,1123.8925626645796,None,1123.8925626645796,None, csavarhúzó,1125.650790328451,None,1125.650790328451,None,down,3.5833076234557666,1125.650790328451,None,1129.2646580240107,None,4,0.6017838682164438,1129.2646580240107,None,,,,,,,,,,,,,,,,,,,,,,,,,,,878924,2022_May_04_1544,palt,2021.1.2,51.16214534858175,
6,menta,triatlon,,,,,,,,,3,0,3,0,,,,,0,4,4,5,,,,,,,,,1129.8954282739433,None,,,,,,,,,,,menta,1130.90739982808,None,4,4.408775096642785,1130.90739982808,None,1130.90739982808,None,1130.90739982808,None, triatlon,1135.349490820954,None,1135.349490820954,None,down,2.9566053321468644,1135.349490820954,None,1138.3449722147197,None,4,0.6224076094222255,1138.3449722147197,None,,,,,,,,,,,,,,,,,,,,,,,,,,,878924,2022_May_04_1544,palt,2021.1.2,51.16214534858175,
9,szilva,kecske,,,,,,,,,3,0,3,0,,,,,0,5,5,8,,,,,,,,,1138.996237449348,None,,,,,,,,,,,kecske,1140.0089980257326,None,4,1.6143447787617333,1140.0089980257326,None,1140.0089980257326,None,1140.0089980257326,None, szilva,1141.6608995786519,None,1141.6608995786519,None,down,2.709491778863594,1141.6608995786519,None,1144.4038232589955,None,4,0.5011690715909936,1144.4038232589955,None,,,,,,,,,,,,,,,,,,,,,,,,,,,878924,2022_May_04_1544,palt,2021.1.2,51.16214534858175,
3,fogó,limonádé,,,,,,,,,3,0,3,0,,,,,0,6,6,2,,,,,,,,,1144.9291211094824,None,,,,,,,,,,,limonádé,1145.9438404016546,None,4,1.7620856933644973,1145.9438404016546,None,1145.9438404016546,None,1145.9438404016546,None, fogó,1147.7305260479916,None,1147.7305260479916,None,down,2.3032964770682156,1147.7305260479916,None,1150.0730490904534,None,4,0.479875112476293,1150.0730490904534,None,,,,,,,,,,,,,,,,,,,,,,,,,,,878924,2022_May_04_1544,palt,2021.1.2,51.16214534858175,
5,karton,hentes,,,,,,,,,3,0,3,0,,,,,0,7,7,4,,,,,,,,,1150.5794399528531,None,,,,,,,,,,,hentes,1151.5946497014957,None,4,1.405394461355172,1151.5946497014957,None,1151.5946497014957,None,1151.5946497014957,None, karton,1153.0261490739067,None,1153.0261490739067,None,down,2.5917138048098423,1153.0261490739067,None,1155.6436881953268,None,4,0.4032357686664909,1155.6436881953268,None,,,,,,,,,,,,,,,,,,,,,,,,,,,878924,2022_May_04_1544,palt,2021.1.2,51.16214534858175,
10,málna,dominó,,,,,,,,,3,0,3,0,,,,,0,8,8,9,,,,,,,,,1156.0806108904653,None,,,,,,,,,,,dominó,1157.0856669150526,None,4,1.67101722600637,1157.0856669150526,None,1157.0856669150526,None,1157.0856669150526,None, málna,1158.802039390779,None,1158.802039390779,None,down,2.7837214480969124,1158.802039390779,None,1161.6132873583701,None,4,0.4684518618742004,1161.6132873583701,None,,,,,,,,,,,,,,,,,,,,,,,,,,,878924,2022_May_04_1544,palt,2021.1.2,51.16214534858175,
4,mocsár,ananász,,,,,,,,,3,0,3,0,,,,,0,9,9,3,,,,,,,,,1162.11313154432,None,,,,,,,,,,,mocsár,1163.1303155591595,None,4,1.6752627689857036,1163.1303155591595,None,1163.1303155591595,None,1163.1303155591595,None, ananász,1164.8509192715283,None,1164.8509192715283,None,down,2.814665923593566,1164.8509192715283,None,1167.701111100032,None,4,0.3746400105301291,1167.701111100032,None,,,,,,,,,,,,,,,,,,,,,,,,,,,878924,2022_May_04_1544,palt,2021.1.2,51.16214534858175,
,,,,,,,,,,,3,0,3,0,,,,,,,,,,,,,,,,,,,,,,,,,,,,,,,,,,,,,,,,,,,,,,,,,,,,,,,,,,,,,,,,,,,,,,,,,,,4,57.821871932654176,1168.115948636725,None,1168.115948636725,None,878924,2022_May_04_1544,palt,2021.1.2,51.16214534858175,
