itemno,wordA,wordB,enc_gyak.thisRepN,enc_gyak.thisTrialN,enc_gyak.thisN,enc_gyak.thisIndex,rec_gyak.thisRepN,rec_gyak.thisTrialN,rec_gyak.thisN,rec_gyak.thisIndex,repeat_task.thisRepN,repeat_task.thisTrialN,repeat_task.thisN,repeat_task.thisIndex,enc_loop.thisRepN,enc_loop.thisTrialN,enc_loop.thisN,enc_loop.thisIndex,test_loop.thisRepN,test_loop.thisTrialN,test_loop.thisN,test_loop.thisIndex,int.started,int.stopped,int_key.keys,int_key.rt,int_key.started,int_key.stopped,prepare_gyak_text.started,prepare_gyak_text.stopped,fix.started,fix.stopped,word1.started,word1.stopped,word2.started,word2.stopped,gykrec_inst.started,gykrec_inst.stopped,gyakrec_inst.keys,gyakrec_inst.rt,gyakrec_inst.started,gyakrec_inst.stopped,cueword,cueword1.started,cueword1.stopped,cue_resp.keys,cue_resp.rt,cue_resp.started,cue_resp.stopped,cue_cont_text.started,cue_cont_text.stopped,cue_space.started,cue_space.stopped,test_ansbox.text,test_ansbox.started,test_ansbox.stopped,ans_text.started,ans_text.stopped,ans_continue.keys,ans_continue.rt,ans_continue.started,ans_continue.stopped,feedback_text.started,feedback_text.stopped,feedback_cont.keys,feedback_cont.rt,feedback_cont.started,feedback_cont.stopped,main_prep.started,main_prep.stopped,main_prep_resp.keys,main_prep_resp.rt,main_prep_resp.started,main_prep_resp.stopped,preparation.started,preparation.stopped,break_text.started,break_text.stopped,key_resp.keys,key_resp.rt,key_resp.started,key_resp.stopped,test_instruction.started,test_instruction.stopped,test_i_key.keys,test_i_key.rt,test_i_key.started,test_i_key.stopped,rep_routine.keys,rep_routine.rt,rep_routine.started,rep_routine.stopped,encrep_textbox.started,encrep_textbox.stopped,Résztvevő kódja,date,expName,psychopyVersion,frameRate,
,,,,,,,,,,,,,,,,,,,,,,,15.876108269905671,None,4,17.72614428435918,15.876108269905671,None,,,,,,,,,,,,,,,,,,,,,,,,,,,,,,,,,,,,,,,,,,,,,,,,,,,,,,,,,,,,,,,,,,,938383,2022_May_07_1220,palt,2021.1.2,52.81092426644857,
3,majoránna,szikla,0,0,0,2,,,,,,,,,,,,,,,,,,,,,,,33.63145757315215,None,36.670042533194646,None,37.67614695907105,None,37.67614695907105,None,,,,,,,,,,,,,,,,,,,,,,,,,,,,,,,,,,,,,,,,,,,,,,,,,,,,,,,,,,,938383,2022_May_07_1220,palt,2021.1.2,52.81092426644857,
1,sapka,beton,0,1,1,0,,,,,,,,,,,,,,,,,,,,,,,,,43.65586190333124,None,44.66902367747389,None,44.66902367747389,None,,,,,,,,,,,,,,,,,,,,,,,,,,,,,,,,,,,,,,,,,,,,,,,,,,,,,,,,,,,938383,2022_May_07_1220,palt,2021.1.2,52.81092426644857,
4,kard,harcsa,0,2,2,3,,,,,,,,,,,,,,,,,,,,,,,,,50.64667571906466,None,51.66507327929139,None,51.66507327929139,None,,,,,,,,,,,,,,,,,,,,,,,,,,,,,,,,,,,,,,,,,,,,,,,,,,,,,,,,,,,938383,2022_May_07_1220,palt,2021.1.2,52.81092426644857,
2,lepke,szintetizátor,0,3,3,1,,,,,,,,,,,,,,,,,,,,,,,,,57.64761495718267,None,58.66261135565583,None,58.66261135565583,None,,,,,,,,,,,,,,,,,,,,,,,,,,,,,,,,,,,,,,,,,,,,,,,,,,,,,,,,,,,938383,2022_May_07_1220,palt,2021.1.2,52.81092426644857,
,,,,,,,,,,,,,,,,,,,,,,,,,,,,,,,,,,,,,64.63881193217821,None,4,9.793055982328951,64.63881193217821,None,,,,,,,,,,,,,,,,,,,,,,,,,,,,,,,,,,,,,,,,,,,,,,,,,,,,,938383,2022_May_07_1220,palt,2021.1.2,52.81092426644857,
4,kard,harcsa,,,,,0,0,0,3,,,,,,,,,,,,,,,,,,,,,74.48632506595459,None,,,,,,,,,,,harcsa,75.49335753370542,None,4,7.232286341954023,75.49335753370542,None,75.49335753370542,None,75.49335753370542,None, kalapács,82.78927290532738,None,82.78927290532738,None,down,2.198191686766222,82.78927290532738,None,85.0605814816663,None,4,7.10234056902118,85.0605814816663,None,,,,,,,,,,,,,,,,,,,,,,,,,,,938383,2022_May_07_1220,palt,2021.1.2,52.81092426644857,
2,lepke,szintetizátor,,,,,0,1,1,1,,,,,,,,,,,,,,,,,,,,,92.2165230026003,None,,,,,,,,,,,szintetizátor,93.24011809518561,None,None,,93.24011809518561,None,93.24011809518561,None,93.24011809518561,None, laskagomba,108.21879614552017,None,108.21879614552017,None,down,3.5526558046694845,108.21879614552017,None,111.81213837780524,None,4,6.279997462173924,111.81213837780524,None,,,,,,,,,,,,,,,,,,,,,,,,,,,938383,2022_May_07_1220,palt,2021.1.2,52.81092426644857,
1,sapka,beton,,,,,0,2,2,0,,,,,,,,,,,,,,,,,,,,,118.11771359585691,None,,,,,,,,,,,sapka,119.13143020460848,None,4,4.434627781738527,119.13143020460848,None,119.13143020460848,None,119.13143020460848,None,borotva,123.59268072247505,None,123.59268072247505,None,down,3.314364558667876,123.59268072247505,None,126.94776654150337,None,4,7.613308817730285,126.94776654150337,None,,,,,,,,,,,,,,,,,,,,,,,,,,,938383,2022_May_07_1220,palt,2021.1.2,52.81092426644857,
3,majoránna,szikla,,,,,0,3,3,2,,,,,,,,,,,,,,,,,,,,,134.5866397417849,None,,,,,,,,,,,majoránna,135.5964510482736,None,4,8.283378097461537,135.5964510482736,None,135.5964510482736,None,135.5964510482736,None, szikla,143.91278551903088,None,143.91278551903088,None,down,1.9544289120240137,143.91278551903088,None,145.90721509046853,None,4,1.4934545676223934,145.90721509046853,None,,,,,,,,,,,,,,,,,,,,,,,,,,,938383,2022_May_07_1220,palt,2021.1.2,52.81092426644857,
,,,,,,,,,,,,,,,,,,,,,,,,,,,,,,,,,,,,,,,,,,,,,,,,,,,,,,,,,,,,,,,,,,,,,147.44487574067898,None,4,31.97574184264522,147.44487574067898,None,,,,,,,,,,,,,,,,,,,,,938383,2022_May_07_1220,palt,2021.1.2,52.81092426644857,
3,fogó,limonádé,,,,,,,,,0,0,0,0,0,0,0,2,,,,,,,,,,,,,183.48332043690607,None,184.47510552429594,None,184.47510552429594,None,,,,,,,,,,,,,,,,,,,,,,,,,,,,,,,,,,,,,,,179.45820670202374,None,,,,,,,,,,,,,,,,,,,938383,2022_May_07_1220,palt,2021.1.2,52.81092426644857,
2,kötény,tisztás,,,,,,,,,0,0,0,0,0,1,1,1,,,,,,,,,,,,,190.4629467445193,None,191.4704351471737,None,191.4704351471737,None,,,,,,,,,,,,,,,,,,,,,,,,,,,,,,,,,,,,,,,,,,,,,,,,,,,,,,,,,,,938383,2022_May_07_1220,palt,2021.1.2,52.81092426644857,
8,szalvéta,puska,,,,,,,,,0,0,0,0,0,2,2,7,,,,,,,,,,,,,197.46499720716383,None,198.48355617944617,None,198.48355617944617,None,,,,,,,,,,,,,,,,,,,,,,,,,,,,,,,,,,,,,,,,,,,,,,,,,,,,,,,,,,,938383,2022_May_07_1220,palt,2021.1.2,52.81092426644857,
10,málna,dominó,,,,,,,,,0,0,0,0,0,3,3,9,,,,,,,,,,,,,204.46500902541447,None,205.47468069009483,None,205.47468069009483,None,,,,,,,,,,,,,,,,,,,,,,,,,,,,,,,,,,,,,,,,,,,,,,,,,,,,,,,,,,,938383,2022_May_07_1220,palt,2021.1.2,52.81092426644857,
9,szilva,kecske,,,,,,,,,0,0,0,0,0,4,4,8,,,,,,,,,,,,,211.46383497770876,None,212.47605626971927,None,212.47605626971927,None,,,,,,,,,,,,,,,,,,,,,,,,,,,,,,,,,,,,,,,,,,,,,,,,,,,,,,,,,,,938383,2022_May_07_1220,palt,2021.1.2,52.81092426644857,
1,bagoly,kirakó,,,,,,,,,0,0,0,0,0,5,5,0,,,,,,,,,,,,,218.46432139107492,None,219.48094559507445,None,219.48094559507445,None,,,,,,,,,,,,,,,,,,,,,,,,,,,,,,,,,,,,,,,,,,,,,,,,,,,,,,,,,,,938383,2022_May_07_1220,palt,2021.1.2,52.81092426644857,
7,csavarhúzó,hering,,,,,,,,,0,0,0,0,0,6,6,6,,,,,,,,,,,,,225.4599977856269,None,226.47619186830707,None,226.47619186830707,None,,,,,,,,,,,,,,,,,,,,,,,,,,,,,,,,,,,,,,,,,,,,,,,,,,,,,,,,,,,938383,2022_May_07_1220,palt,2021.1.2,52.81092426644857,
5,karton,hentes,,,,,,,,,0,0,0,0,0,7,7,4,,,,,,,,,,,,,232.45994180452544,None,233.45999125449453,None,233.45999125449453,None,,,,,,,,,,,,,,,,,,,,,,,,,,,,,,,,,,,,,,,,,,,,,,,,,,,,,,,,,,,938383,2022_May_07_1220,palt,2021.1.2,52.81092426644857,
4,mocsár,ananász,,,,,,,,,0,0,0,0,0,8,8,3,,,,,,,,,,,,,239.4773450786015,None,240.47843173355795,None,240.47843173355795,None,,,,,,,,,,,,,,,,,,,,,,,,,,,,,,,,,,,,,,,,,,,,,,,,,,,,,,,,,,,938383,2022_May_07_1220,palt,2021.1.2,52.81092426644857,
6,menta,triatlon,,,,,,,,,0,0,0,0,0,9,9,5,,,,,,,,,,,,,246.4614542267518,None,247.47764706541784,None,247.47764706541784,None,,,,,,,,,,,,,,,,,,,,,,,,,,,,,,,,,,,,,,,,,,,,,,,,,,,,,,,,,,,938383,2022_May_07_1220,palt,2021.1.2,52.81092426644857,
2,kötény,tisztás,,,,,,,,,0,0,0,0,,,,,0,0,0,1,,,,,,,,,277.81726375676226,None,,,,,,,,,,,tisztás,278.80956449208315,None,None,,278.80956449208315,None,278.80956449208315,None,278.80956449208315,None,kalap,293.8029154946562,None,293.8029154946562,None,down,2.9737678875681013,293.8029154946562,None,296.82679360278416,None,4,4.91588469396811,296.82679360278416,None,,,,,,,273.7965134361293,None,253.4681616933085,None,u,7.261085809092037,253.4681616933085,None,260.762567752623,None,4,13.002578861778602,260.762567752623,None,,,,,,,938383,2022_May_07_1220,palt,2021.1.2,52.81092426644857,
10,málna,dominó,,,,,,,,,0,0,0,0,,,,,0,1,1,9,,,,,,,,,301.77055189886596,None,,,,,,,,,,,dominó,302.7924218410626,None,4,5.445159378112294,302.7924218410626,None,302.7924218410626,None,302.7924218410626,None, metronóm,308.2820911546005,None,308.2820911546005,None,down,2.318864193628542,308.2820911546005,None,310.6402232773835,None,4,1.3343342542648315,310.6402232773835,None,,,,,,,,,,,,,,,,,,,,,,,,,,,938383,2022_May_07_1220,palt,2021.1.2,52.81092426644857,
5,karton,hentes,,,,,,,,,0,0,0,0,,,,,0,2,2,4,,,,,,,,,312.0024385980796,None,,,,,,,,,,,karton,313.0111980822403,None,4,5.227289097500034,313.0111980822403,None,313.0111980822403,None,313.0111980822403,None, heves,318.2714647013927,None,318.2714647013927,None,down,4.121004039421678,318.2714647013927,None,322.424046113505,None,4,1.5024927130434662,322.424046113505,None,,,,,,,,,,,,,,,,,,,,,,,,,,,938383,2022_May_07_1220,palt,2021.1.2,52.81092426644857,
9,szilva,kecske,,,,,,,,,0,0,0,0,,,,,0,3,3,8,,,,,,,,,323.9523100282531,None,,,,,,,,,,,kecske,324.96168281615246,None,4,6.515665061539039,324.96168281615246,None,324.96168281615246,None,324.96168281615246,None, szikla,331.51451247325167,None,331.51451247325167,None,down,2.2699805807787925,331.51451247325167,None,333.8086765699554,None,4,1.1608383104903623,333.8086765699554,None,,,,,,,,,,,,,,,,,,,,,,,,,,,938383,2022_May_07_1220,palt,2021.1.2,52.81092426644857,
6,menta,triatlon,,,,,,,,,0,0,0,0,,,,,0,4,4,5,,,,,,,,,335.00343070726376,None,,,,,,,,,,,menta,336.02420901844744,None,4,6.853854235145263,336.02420901844744,None,336.02420901844744,None,336.02420901844744,None, tárkony,342.91326042520814,None,342.91326042520814,None,down,2.2467717576073483,342.91326042520814,None,345.19598914217204,None,4,0.6782279001781717,345.19598914217204,None,,,,,,,,,,,,,,,,,,,,,,,,,,,938383,2022_May_07_1220,palt,2021.1.2,52.81092426644857,
7,csavarhúzó,hering,,,,,,,,,0,0,0,0,,,,,0,5,5,6,,,,,,,,,345.895364828757,None,,,,,,,,,,,csavarhúzó,346.90960983675905,None,4,13.345626571332105,346.90960983675905,None,346.90960983675905,None,346.90960983675905,None, hegyikecske,360.29336605535354,None,360.29336605535354,None,down,3.60250104800798,360.29336605535354,None,363.9282154600369,None,4,0.7456739065237343,363.9282154600369,None,,,,,,,,,,,,,,,,,,,,,,,,,,,938383,2022_May_07_1220,palt,2021.1.2,52.81092426644857,
3,fogó,limonádé,,,,,,,,,0,0,0,0,,,,,0,6,6,2,,,,,,,,,364.70049717416987,None,,,,,,,,,,,fogó,365.7084076119354,None,4,3.336428568698466,365.7084076119354,None,365.7084076119354,None,365.7084076119354,None, lapát,369.07120451377705,None,369.07120451377705,None,down,1.9765725396573544,369.07120451377705,None,371.0682645740453,None,4,0.685556445736438,371.0682645740453,None,,,,,,,,,,,,,,,,,,,,,,,,,,,938383,2022_May_07_1220,palt,2021.1.2,52.81092426644857,
8,szalvéta,puska,,,,,,,,,0,0,0,0,,,,,0,7,7,7,,,,,,,,,371.7807790202787,None,,,,,,,,,,,szalvéta,372.7951101770159,None,4,2.553558655199595,372.7951101770159,None,372.7951101770159,None,372.7951101770159,None, papír,375.3846802173648,None,375.3846802173648,None,down,3.2151598633499816,375.3846802173648,None,378.6261888204608,None,4,0.14746411924716085,378.6261888204608,None,,,,,,,,,,,,,,,,,,,,,,,,,,,938383,2022_May_07_1220,palt,2021.1.2,52.81092426644857,
1,bagoly,kirakó,,,,,,,,,0,0,0,0,,,,,0,8,8,0,,,,,,,,,378.79600120917894,None,,,,,,,,,,,bagoly,379.80213518068194,None,4,6.499773587682284,379.80213518068194,None,379.80213518068194,None,379.80213518068194,None, képeslap,386.3425410807831,None,386.3425410807831,None,down,2.6730272577842698,386.3425410807831,None,389.0405013790587,None,4,0.7243261432740837,389.0405013790587,None,,,,,,,,,,,,,,,,,,,,,,,,,,,938383,2022_May_07_1220,palt,2021.1.2,52.81092426644857,
4,mocsár,ananász,,,,,,,,,0,0,0,0,,,,,0,9,9,3,,,,,,,,,389.7947226634715,None,,,,,,,,,,,ananász,390.8120886167744,None,4,10.712344636907801,390.8120886167744,None,390.8120886167744,None,390.8120886167744,None, martalóc,401.5575712545542,None,401.5575712545542,None,down,2.561801247182302,401.5575712545542,None,404.16793640051037,None,4,0.8263914720155299,404.16793640051037,None,,,,,,,,,,,,,,,,,,,,,,,,,,,938383,2022_May_07_1220,palt,2021.1.2,52.81092426644857,
,,,,,,,,,,,0,0,0,0,,,,,,,,,,,,,,,,,,,,,,,,,,,,,,,,,,,,,,,,,,,,,,,,,,,,,,,,,,,,,,,,,,,,,,,,,,,4,26.632579371798784,405.04040185711347,None,405.04040185711347,None,938383,2022_May_07_1220,palt,2021.1.2,52.81092426644857,
2,kötény,tisztás,,,,,,,,,1,0,1,0,0,0,0,1,,,,,,,,,,,,,435.7318117468385,None,436.70830218086485,None,436.70830218086485,None,,,,,,,,,,,,,,,,,,,,,,,,,,,,,,,,,,,,,,,431.69967705139425,None,,,,,,,,,,,,,,,,,,,938383,2022_May_07_1220,palt,2021.1.2,52.81092426644857,
7,csavarhúzó,hering,,,,,,,,,1,0,1,0,0,1,1,6,,,,,,,,,,,,,442.7086358903907,None,443.722493073903,None,443.722493073903,None,,,,,,,,,,,,,,,,,,,,,,,,,,,,,,,,,,,,,,,,,,,,,,,,,,,,,,,,,,,938383,2022_May_07_1220,palt,2021.1.2,52.81092426644857,
4,mocsár,ananász,,,,,,,,,1,0,1,0,0,2,2,3,,,,,,,,,,,,,449.717449800577,None,450.7088265370112,None,450.7088265370112,None,,,,,,,,,,,,,,,,,,,,,,,,,,,,,,,,,,,,,,,,,,,,,,,,,,,,,,,,,,,938383,2022_May_07_1220,palt,2021.1.2,52.81092426644857,
10,málna,dominó,,,,,,,,,1,0,1,0,0,3,3,9,,,,,,,,,,,,,456.7024232343538,None,457.7077899540309,None,457.7077899540309,None,,,,,,,,,,,,,,,,,,,,,,,,,,,,,,,,,,,,,,,,,,,,,,,,,,,,,,,,,,,938383,2022_May_07_1220,palt,2021.1.2,52.81092426644857,
6,menta,triatlon,,,,,,,,,1,0,1,0,0,4,4,5,,,,,,,,,,,,,463.7069381085457,None,464.71084745402914,None,464.71084745402914,None,,,,,,,,,,,,,,,,,,,,,,,,,,,,,,,,,,,,,,,,,,,,,,,,,,,,,,,,,,,938383,2022_May_07_1220,palt,2021.1.2,52.81092426644857,
5,karton,hentes,,,,,,,,,1,0,1,0,0,5,5,4,,,,,,,,,,,,,470.71034922241233,None,471.726831607637,None,471.726831607637,None,,,,,,,,,,,,,,,,,,,,,,,,,,,,,,,,,,,,,,,,,,,,,,,,,,,,,,,,,,,938383,2022_May_07_1220,palt,2021.1.2,52.81092426644857,
1,bagoly,kirakó,,,,,,,,,1,0,1,0,0,6,6,0,,,,,,,,,,,,,477.70662803552113,None,478.71655192621984,None,478.71655192621984,None,,,,,,,,,,,,,,,,,,,,,,,,,,,,,,,,,,,,,,,,,,,,,,,,,,,,,,,,,,,938383,2022_May_07_1220,palt,2021.1.2,52.81092426644857,
9,szilva,kecske,,,,,,,,,1,0,1,0,0,7,7,8,,,,,,,,,,,,,484.70665011694655,None,485.77716295351274,None,485.77716295351274,None,,,,,,,,,,,,,,,,,,,,,,,,,,,,,,,,,,,,,,,,,,,,,,,,,,,,,,,,,,,938383,2022_May_07_1220,palt,2021.1.2,52.81092426644857,
8,szalvéta,puska,,,,,,,,,1,0,1,0,0,8,8,7,,,,,,,,,,,,,491.7111861396115,None,492.72242371959146,None,492.72242371959146,None,,,,,,,,,,,,,,,,,,,,,,,,,,,,,,,,,,,,,,,,,,,,,,,,,,,,,,,,,,,938383,2022_May_07_1220,palt,2021.1.2,52.81092426644857,
3,fogó,limonádé,,,,,,,,,1,0,1,0,0,9,9,2,,,,,,,,,,,,,498.70653069065884,None,499.70668805972673,None,499.70668805972673,None,,,,,,,,,,,,,,,,,,,,,,,,,,,,,,,,,,,,,,,,,,,,,,,,,,,,,,,,,,,938383,2022_May_07_1220,palt,2021.1.2,52.81092426644857,
9,szilva,kecske,,,,,,,,,1,0,1,0,,,,,0,0,0,8,,,,,,,,,519.6792507990031,None,,,,,,,,,,,kecske,520.6817453781841,None,4,7.558000442921184,520.6817453781841,None,520.6817453781841,None,520.6817453781841,None,szilva,528.281986345537,None,528.281986345537,None,down,2.3958017921540886,528.281986345537,None,530.7218234780012,None,4,1.6587153834989294,530.7218234780012,None,,,,,,,515.6554249399342,None,505.7063621254638,None,u,6.075710990815423,505.7063621254638,None,511.8198419965338,None,4,3.7970965723507106,511.8198419965338,None,,,,,,,938383,2022_May_07_1220,palt,2021.1.2,52.81092426644857,
5,karton,hentes,,,,,,,,,1,0,1,0,,,,,0,1,1,4,,,,,,,,,532.4117890557973,None,,,,,,,,,,,karton,533.4202941370895,None,4,13.049291652743705,533.4202941370895,None,533.4202941370895,None,533.4202941370895,None, határ,546.5079188349191,None,546.5079188349191,None,down,8.553786933538504,546.5079188349191,None,555.105784027488,None,4,1.0354997804388404,555.105784027488,None,,,,,,,,,,,,,,,,,,,,,,,,,,,938383,2022_May_07_1220,palt,2021.1.2,52.81092426644857,
10,málna,dominó,,,,,,,,,1,0,1,0,,,,,0,2,2,9,,,,,,,,,556.1609944354277,None,,,,,,,,,,,dominó,557.1767932295334,None,4,6.32849107356742,557.1767932295334,None,557.1767932295334,None,557.1767932295334,None,mókus,563.5332070441218,None,563.5332070441218,None,down,3.192204821156338,563.5332070441218,None,566.7494706677971,None,4,0.6567529356107116,566.7494706677971,None,,,,,,,,,,,,,,,,,,,,,,,,,,,938383,2022_May_07_1220,palt,2021.1.2,52.81092426644857,
7,csavarhúzó,hering,,,,,,,,,1,0,1,0,,,,,0,3,3,6,,,,,,,,,567.4315793009009,None,,,,,,,,,,,csavarhúzó,568.4544407303911,None,4,6.809630736359395,568.4544407303911,None,568.4544407303911,None,568.4544407303911,None,heveder,575.3000287369359,None,575.3000287369359,None,down,3.7450316790491343,575.3000287369359,None,579.0859720119042,None,4,0.4973850615788251,579.0859720119042,None,,,,,,,,,,,,,,,,,,,,,,,,,,,938383,2022_May_07_1220,palt,2021.1.2,52.81092426644857,
2,kötény,tisztás,,,,,,,,,1,0,1,0,,,,,0,4,4,1,,,,,,,,,579.6141802566126,None,,,,,,,,,,,tisztás,580.6222716998309,None,4,11.805661366670392,580.6222716998309,None,580.6222716998309,None,580.6222716998309,None, kapa,592.4726016150089,None,592.4726016150089,None,down,3.1962777556618676,592.4726016150089,None,595.6992024561623,None,4,0.8785960070090368,595.6992024561623,None,,,,,,,,,,,,,,,,,,,,,,,,,,,938383,2022_May_07_1220,palt,2021.1.2,52.81092426644857,
8,szalvéta,puska,,,,,,,,,1,0,1,0,,,,,0,5,5,7,,,,,,,,,596.610232968349,None,,,,,,,,,,,szalvéta,597.6271899488056,None,4,3.5356465752702206,597.6271899488056,None,597.6271899488056,None,597.6271899488056,None, puska,601.1953245223267,None,601.1953245223267,None,down,1.8014329291181639,601.1953245223267,None,603.0365503587527,None,4,0.6341272486606613,603.0365503587527,None,,,,,,,,,,,,,,,,,,,,,,,,,,,938383,2022_May_07_1220,palt,2021.1.2,52.81092426644857,
3,fogó,limonádé,,,,,,,,,1,0,1,0,,,,,0,6,6,2,,,,,,,,,603.6989617375657,None,,,,,,,,,,,fogó,604.7112834844738,None,None,,604.7112834844738,None,604.7112834844738,None,604.7112834844738,None, ,619.7200715811923,None,619.7200715811923,None,down,3.1963996699778363,619.7200715811923,None,622.9685370775405,None,4,1.3768854739610106,622.9685370775405,None,,,,,,,,,,,,,,,,,,,,,,,,,,,938383,2022_May_07_1220,palt,2021.1.2,52.81092426644857,
6,menta,triatlon,,,,,,,,,1,0,1,0,,,,,0,7,7,5,,,,,,,,,624.3756747274892,None,,,,,,,,,,,menta,625.3810489112511,None,4,7.969551890157163,625.3810489112511,None,625.3810489112511,None,625.3810489112511,None, ,633.3898485151585,None,633.3898485151585,None,down,1.0144698653602973,633.3898485151585,None,634.4431997293141,None,4,0.0722118621924892,634.4431997293141,None,,,,,,,,,,,,,,,,,,,,,,,,,,,938383,2022_May_07_1220,palt,2021.1.2,52.81092426644857,
4,mocsár,ananász,,,,,,,,,1,0,1,0,,,,,0,8,8,3,,,,,,,,,634.543263423373,None,,,,,,,,,,,ananász,635.5639593179803,None,None,,635.5639593179803,None,635.5639593179803,None,635.5639593179803,None, ,650.5709395366721,None,650.5709395366721,None,down,2.1690743715735152,650.5709395366721,None,652.7814330658875,None,4,0.7476686988957226,652.7814330658875,None,,,,,,,,,,,,,,,,,,,,,,,,,,,938383,2022_May_07_1220,palt,2021.1.2,52.81092426644857,
1,bagoly,kirakó,,,,,,,,,1,0,1,0,,,,,0,9,9,0,,,,,,,,,653.5609867225867,None,,,,,,,,,,,bagoly,654.586225170875,None,4,6.819038357003592,654.586225170875,None,654.586225170875,None,654.586225170875,None, ,661.4435297066811,None,661.4435297066811,None,down,2.160525438375771,661.4435297066811,None,663.632505352376,None,4,0.9147230864036828,663.632505352376,None,,,,,,,,,,,,,,,,,,,,,,,,,,,938383,2022_May_07_1220,palt,2021.1.2,52.81092426644857,
,,,,,,,,,,,1,0,1,0,,,,,,,,,,,,,,,,,,,,,,,,,,,,,,,,,,,,,,,,,,,,,,,,,,,,,,,,,,,,,,,,,,,,,,,,,,,4,2.232065216638148,664.6048911291873,None,664.6048911291873,None,938383,2022_May_07_1220,palt,2021.1.2,52.81092426644857,
1,bagoly,kirakó,,,,,,,,,2,0,2,0,0,0,0,0,,,,,,,,,,,,,670.8925586214755,None,671.8915133303963,None,671.8915133303963,None,,,,,,,,,,,,,,,,,,,,,,,,,,,,,,,,,,,,,,,666.8632652768865,None,,,,,,,,,,,,,,,,,,,938383,2022_May_07_1220,palt,2021.1.2,52.81092426644857,
6,menta,triatlon,,,,,,,,,2,0,2,0,0,1,1,5,,,,,,,,,,,,,677.8728311996674,None,678.881315443432,None,678.881315443432,None,,,,,,,,,,,,,,,,,,,,,,,,,,,,,,,,,,,,,,,,,,,,,,,,,,,,,,,,,,,938383,2022_May_07_1220,palt,2021.1.2,52.81092426644857,
5,karton,hentes,,,,,,,,,2,0,2,0,0,2,2,4,,,,,,,,,,,,,684.8708752829116,None,685.8709670295939,None,685.8709670295939,None,,,,,,,,,,,,,,,,,,,,,,,,,,,,,,,,,,,,,,,,,,,,,,,,,,,,,,,,,,,938383,2022_May_07_1220,palt,2021.1.2,52.81092426644857,
3,fogó,limonádé,,,,,,,,,2,0,2,0,0,3,3,2,,,,,,,,,,,,,691.8723314129747,None,692.8829563111067,None,692.8829563111067,None,,,,,,,,,,,,,,,,,,,,,,,,,,,,,,,,,,,,,,,,,,,,,,,,,,,,,,,,,,,938383,2022_May_07_1220,palt,2021.1.2,52.81092426644857,
8,szalvéta,puska,,,,,,,,,2,0,2,0,0,4,4,7,,,,,,,,,,,,,698.869431903935,None,699.8865453203907,None,699.8865453203907,None,,,,,,,,,,,,,,,,,,,,,,,,,,,,,,,,,,,,,,,,,,,,,,,,,,,,,,,,,,,938383,2022_May_07_1220,palt,2021.1.2,52.81092426644857,
10,málna,dominó,,,,,,,,,2,0,2,0,0,5,5,9,,,,,,,,,,,,,705.8743168753572,None,706.8851828031475,None,706.8851828031475,None,,,,,,,,,,,,,,,,,,,,,,,,,,,,,,,,,,,,,,,,,,,,,,,,,,,,,,,,,,,938383,2022_May_07_1220,palt,2021.1.2,52.81092426644857,
9,szilva,kecske,,,,,,,,,2,0,2,0,0,6,6,8,,,,,,,,,,,,,712.870214706054,None,713.8771725324914,None,713.8771725324914,None,,,,,,,,,,,,,,,,,,,,,,,,,,,,,,,,,,,,,,,,,,,,,,,,,,,,,,,,,,,938383,2022_May_07_1220,palt,2021.1.2,52.81092426644857,
2,kötény,tisztás,,,,,,,,,2,0,2,0,0,7,7,1,,,,,,,,,,,,,719.87003183458,None,720.8767965261359,None,720.8767965261359,None,,,,,,,,,,,,,,,,,,,,,,,,,,,,,,,,,,,,,,,,,,,,,,,,,,,,,,,,,,,938383,2022_May_07_1220,palt,2021.1.2,52.81092426644857,
7,csavarhúzó,hering,,,,,,,,,2,0,2,0,0,8,8,6,,,,,,,,,,,,,726.870208797045,None,727.8705683199223,None,727.8705683199223,None,,,,,,,,,,,,,,,,,,,,,,,,,,,,,,,,,,,,,,,,,,,,,,,,,,,,,,,,,,,938383,2022_May_07_1220,palt,2021.1.2,52.81092426644857,
4,mocsár,ananász,,,,,,,,,2,0,2,0,0,9,9,3,,,,,,,,,,,,,733.8699764754856,None,734.8703543477459,None,734.8703543477459,None,,,,,,,,,,,,,,,,,,,,,,,,,,,,,,,,,,,,,,,,,,,,,,,,,,,,,,,,,,,938383,2022_May_07_1220,palt,2021.1.2,52.81092426644857,
3,fogó,limonádé,,,,,,,,,2,0,2,0,,,,,0,0,0,2,,,,,,,,,750.9670790813398,None,,,,,,,,,,,fogó,751.968636288424,None,4,10.766949827317148,751.968636288424,None,751.968636288424,None,751.968636288424,None,,762.7640406771097,None,762.7640406771097,None,down,2.2305891822325066,762.7640406771097,None,765.0235039677937,None,4,0.9543691988801584,765.0235039677937,None,,,,,,,746.9480669732438,None,740.872321771807,None,u,4.650572624290362,740.872321771807,None,745.5673623456387,None,4,1.3494861559011042,745.5673623456387,None,,,,,,,938383,2022_May_07_1220,palt,2021.1.2,52.81092426644857,
10,málna,dominó,,,,,,,,,2,0,2,0,,,,,0,1,1,9,,,,,,,,,766.0182967942674,None,,,,,,,,,,,dominó,767.0339932673378,None,4,3.7695417513605207,767.0339932673378,None,767.0339932673378,None,767.0339932673378,None, menta,770.8388074537506,None,770.8388074537506,None,down,1.564055418712087,770.8388074537506,None,772.4364798224997,None,4,1.2899686256423593,772.4364798224997,None,,,,,,,,,,,,,,,,,,,,,,,,,,,938383,2022_May_07_1220,palt,2021.1.2,52.81092426644857,
8,szalvéta,puska,,,,,,,,,2,0,2,0,,,,,0,2,2,7,,,,,,,,,773.7696456273552,None,,,,,,,,,,,szalvéta,774.7836069979239,None,4,3.055797276319936,774.7836069979239,None,774.7836069979239,None,774.7836069979239,None, puska,777.8721230389783,None,777.8721230389783,None,down,1.7303095877869055,777.8721230389783,None,779.6311586963711,None,4,0.5642553956713527,779.6311586963711,None,,,,,,,,,,,,,,,,,,,,,,,,,,,938383,2022_May_07_1220,palt,2021.1.2,52.81092426644857,
5,karton,hentes,,,,,,,,,2,0,2,0,,,,,0,3,3,4,,,,,,,,,780.2156381905079,None,,,,,,,,,,,karton,781.2212005329784,None,None,,781.2212005329784,None,781.2212005329784,None,781.2212005329784,None, ,796.2313060510205,None,796.2313060510205,None,down,1.6587750966427848,796.2313060510205,None,797.9218457459938,None,4,0.6925845594378188,797.9218457459938,None,,,,,,,,,,,,,,,,,,,,,,,,,,,938383,2022_May_07_1220,palt,2021.1.2,52.81092426644857,
6,menta,triatlon,,,,,,,,,2,0,2,0,,,,,0,4,4,5,,,,,,,,,798.6451993734809,None,,,,,,,,,,,menta,799.6668789801188,None,4,4.137168887420557,799.6668789801188,None,799.6668789801188,None,799.6668789801188,None,triatlon,803.8337119313655,None,803.8337119313655,None,down,3.5763289597816765,803.8337119313655,None,807.4662263029022,None,4,0.4398035437334329,807.4662263029022,None,,,,,,,,,,,,,,,,,,,,,,,,,,,938383,2022_May_07_1220,palt,2021.1.2,52.81092426644857,
4,mocsár,ananász,,,,,,,,,2,0,2,0,,,,,0,5,5,3,,,,,,,,,807.9244597514626,None,,,,,,,,,,,ananász,808.9356531685917,None,4,7.151468943571672,808.9356531685917,None,808.9356531685917,None,808.9356531685917,None, ,816.116177848191,None,816.116177848191,None,down,1.3898786827921867,816.116177848191,None,817.538766276557,None,4,0.6220123209059238,817.538766276557,None,,,,,,,,,,,,,,,,,,,,,,,,,,,938383,2022_May_07_1220,palt,2021.1.2,52.81092426644857,
9,szilva,kecske,,,,,,,,,2,0,2,0,,,,,0,6,6,8,,,,,,,,,818.1935300176265,None,,,,,,,,,,,kecske,819.2023712963564,None,4,2.3045062904711813,819.2023712963564,None,819.2023712963564,None,819.2023712963564,None,szilva,821.5455779300537,None,821.5455779300537,None,down,1.8801553910598159,821.5455779300537,None,823.4692862909287,None,4,0.1685344650177285,823.4692862909287,None,,,,,,,,,,,,,,,,,,,,,,,,,,,938383,2022_May_07_1220,palt,2021.1.2,52.81092426644857,
2,kötény,tisztás,,,,,,,,,2,0,2,0,,,,,0,7,7,1,,,,,,,,,823.6559471189976,None,,,,,,,,,,,tisztás,824.6748220734298,None,4,12.15198614646215,824.6748220734298,None,824.6748220734298,None,824.6748220734298,None, ,836.8520448022755,None,836.8520448022755,None,down,1.4375276018399745,836.8520448022755,None,838.3275509023806,None,4,0.8870320448186249,838.3275509023806,None,,,,,,,,,,,,,,,,,,,,,,,,,,,938383,2022_May_07_1220,palt,2021.1.2,52.81092426644857,
1,bagoly,kirakó,,,,,,,,,2,0,2,0,,,,,0,8,8,0,,,,,,,,,839.2421051125275,None,,,,,,,,,,,bagoly,840.2639697677223,None,4,7.083833534736186,840.2639697677223,None,840.2639697677223,None,840.2639697677223,None, ,847.3880894652102,None,847.3880894652102,None,down,1.6534600040176883,847.3880894652102,None,849.0717338460963,None,4,0.9696187563240528,849.0717338460963,None,,,,,,,,,,,,,,,,,,,,,,,,,,,938383,2022_May_07_1220,palt,2021.1.2,52.81092426644857,
7,csavarhúzó,hering,,,,,,,,,2,0,2,0,,,,,0,9,9,6,,,,,,,,,850.0731476793298,None,,,,,,,,,,,csavarhúzó,851.0901752581121,None,4,12.97312814812176,851.0901752581121,None,851.0901752581121,None,851.0901752581121,None, ,864.0968743273988,None,864.0968743273988,None,down,2.1604330696864054,864.0968743273988,None,866.2875371808186,None,4,0.9287416822044179,866.2875371808186,None,,,,,,,,,,,,,,,,,,,,,,,,,,,938383,2022_May_07_1220,palt,2021.1.2,52.81092426644857,
,,,,,,,,,,,2,0,2,0,,,,,,,,,,,,,,,,,,,,,,,,,,,,,,,,,,,,,,,,,,,,,,,,,,,,,,,,,,,,,,,,,,,,,,,,,,,4,12.611257733195089,867.2718522149371,None,867.2718522149371,None,938383,2022_May_07_1220,palt,2021.1.2,52.81092426644857,
8,szalvéta,puska,,,,,,,,,3,0,3,0,0,0,0,7,,,,,,,,,,,,,883.9380942546995,None,884.9287525673863,None,884.9287525673863,None,,,,,,,,,,,,,,,,,,,,,,,,,,,,,,,,,,,,,,,879.9062935797265,None,,,,,,,,,,,,,,,,,,,938383,2022_May_07_1220,palt,2021.1.2,52.81092426644857,
7,csavarhúzó,hering,,,,,,,,,3,0,3,0,0,1,1,6,,,,,,,,,,,,,890.9180318793515,None,891.9204362668097,None,891.9204362668097,None,,,,,,,,,,,,,,,,,,,,,,,,,,,,,,,,,,,,,,,,,,,,,,,,,,,,,,,,,,,938383,2022_May_07_1220,palt,2021.1.2,52.81092426644857,
3,fogó,limonádé,,,,,,,,,3,0,3,0,0,2,2,2,,,,,,,,,,,,,897.9180097979261,None,898.9178409216693,None,898.9178409216693,None,,,,,,,,,,,,,,,,,,,,,,,,,,,,,,,,,,,,,,,,,,,,,,,,,,,,,,,,,,,938383,2022_May_07_1220,palt,2021.1.2,52.81092426644857,
1,bagoly,kirakó,,,,,,,,,3,0,3,0,0,3,3,0,,,,,,,,,,,,,904.9177588160383,None,905.9180166401202,None,905.9180166401202,None,,,,,,,,,,,,,,,,,,,,,,,,,,,,,,,,,,,,,,,,,,,,,,,,,,,,,,,,,,,938383,2022_May_07_1220,palt,2021.1.2,52.81092426644857,
4,mocsár,ananász,,,,,,,,,3,0,3,0,0,4,4,3,,,,,,,,,,,,,911.9177389116958,None,912.9380491588963,None,912.9380491588963,None,,,,,,,,,,,,,,,,,,,,,,,,,,,,,,,,,,,,,,,,,,,,,,,,,,,,,,,,,,,938383,2022_May_07_1220,palt,2021.1.2,52.81092426644857,
10,málna,dominó,,,,,,,,,3,0,3,0,0,5,5,9,,,,,,,,,,,,,918.920955024776,None,919.9312832232099,None,919.9312832232099,None,,,,,,,,,,,,,,,,,,,,,,,,,,,,,,,,,,,,,,,,,,,,,,,,,,,,,,,,,,,938383,2022_May_07_1220,palt,2021.1.2,52.81092426644857,
2,kötény,tisztás,,,,,,,,,3,0,3,0,0,6,6,1,,,,,,,,,,,,,925.9099395030644,None,926.9177373566199,None,926.9177373566199,None,,,,,,,,,,,,,,,,,,,,,,,,,,,,,,,,,,,,,,,,,,,,,,,,,,,,,,,,,,,938383,2022_May_07_1220,palt,2021.1.2,52.81092426644857,
9,szilva,kecske,,,,,,,,,3,0,3,0,0,7,7,8,,,,,,,,,,,,,932.9181282912614,None,933.9291183104506,None,933.9291183104506,None,,,,,,,,,,,,,,,,,,,,,,,,,,,,,,,,,,,,,,,,,,,,,,,,,,,,,,,,,,,938383,2022_May_07_1220,palt,2021.1.2,52.81092426644857,
5,karton,hentes,,,,,,,,,3,0,3,0,0,8,8,4,,,,,,,,,,,,,939.9199961932609,None,940.9312312852126,None,940.9312312852126,None,,,,,,,,,,,,,,,,,,,,,,,,,,,,,,,,,,,,,,,,,,,,,,,,,,,,,,,,,,,938383,2022_May_07_1220,palt,2021.1.2,52.81092426644857,
6,menta,triatlon,,,,,,,,,3,0,3,0,0,9,9,5,,,,,,,,,,,,,946.9212203129428,None,947.9167900324101,None,947.9167900324101,None,,,,,,,,,,,,,,,,,,,,,,,,,,,,,,,,,,,,,,,,,,,,,,,,,,,,,,,,,,,938383,2022_May_07_1220,palt,2021.1.2,52.81092426644857,
9,szilva,kecske,,,,,,,,,3,0,3,0,,,,,0,0,0,8,,,,,,,,,961.9343702688348,None,,,,,,,,,,,kecske,962.934512398555,None,4,3.848731655278243,962.934512398555,None,962.934512398555,None,962.934512398555,None,szilva,966.820283003035,None,966.820283003035,None,down,2.7476307563483715,966.820283003035,None,969.6174719441915,None,4,1.2985517693450674,969.6174719441915,None,,,,,,,957.9154303141404,None,953.9216958411271,None,u,3.022722409805283,953.9216958411271,None,956.9791171908146,None,4,0.9110112298512831,956.9791171908146,None,,,,,,,938383,2022_May_07_1220,palt,2021.1.2,52.81092426644857,
3,fogó,limonádé,,,,,,,,,3,0,3,0,,,,,0,1,1,2,,,,,,,,,970.9371428873856,None,,,,,,,,,,,fogó,971.9416378571186,None,4,8.51411811762955,971.9416378571186,None,971.9416378571186,None,971.9416378571186,None, ,980.5012378039537,None,980.5012378039537,None,down,3.690675293561071,980.5012378039537,None,984.2265420610784,None,4,0.711174632422626,984.2265420610784,None,,,,,,,,,,,,,,,,,,,,,,,,,,,938383,2022_May_07_1220,palt,2021.1.2,52.81092426644857,
8,szalvéta,puska,,,,,,,,,3,0,3,0,,,,,0,2,2,7,,,,,,,,,984.9607756116893,None,,,,,,,,,,,szalvéta,985.9713224472944,None,4,2.7335141936782748,985.9713224472944,None,985.9713224472944,None,985.9713224472944,None, puska,988.7319666277617,None,988.7319666277617,None,down,1.8596924399025738,988.7319666277617,None,990.6327961430652,None,4,0.4927283686120063,990.6327961430652,None,,,,,,,,,,,,,,,,,,,,,,,,,,,938383,2022_May_07_1220,palt,2021.1.2,52.81092426644857,
1,bagoly,kirakó,,,,,,,,,3,0,3,0,,,,,0,3,3,0,,,,,,,,,991.1665163470898,None,,,,,,,,,,,bagoly,992.1789879988646,None,4,8.570527453674003,992.1789879988646,None,992.1789879988646,None,992.1789879988646,None, karton,1000.776744650444,None,1000.776744650444,None,down,3.174736235756427,1000.776744650444,None,1003.9892140007578,None,4,0.9285171357914805,1003.9892140007578,None,,,,,,,,,,,,,,,,,,,,,,,,,,,938383,2022_May_07_1220,palt,2021.1.2,52.81092426644857,
2,kötény,tisztás,,,,,,,,,3,0,3,0,,,,,0,4,4,1,,,,,,,,,1004.958133304608,None,,,,,,,,,,,tisztás,1005.9618442283245,None,4,2.600485418108292,1005.9618442283245,None,1005.9618442283245,None,1005.9618442283245,None, karton,1008.5980200736085,None,1008.5980200736085,None,down,2.5852538991020992,1008.5980200736085,None,1011.222520131385,None,4,0.6728655346669257,1011.222520131385,None,,,,,,,,,,,,,,,,,,,,,,,,,,,938383,2022_May_07_1220,palt,2021.1.2,52.81092426644857,
10,málna,dominó,,,,,,,,,3,0,3,0,,,,,0,5,5,9,,,,,,,,,1011.9247477430617,None,,,,,,,,,,,dominó,1012.9332043073373,None,4,7.22992207435891,1012.9332043073373,None,1012.9332043073373,None,1012.9332043073373,None, mókus,1020.2018547153566,None,1020.2018547153566,None,down,14.677392849116586,1020.2018547153566,None,1034.900203460129,None,4,1.5648441299563274,1034.900203460129,None,,,,,,,,,,,,,,,,,,,,,,,,,,,938383,2022_May_07_1220,palt,2021.1.2,52.81092426644857,
5,karton,hentes,,,,,,,,,3,0,3,0,,,,,0,6,6,4,,,,,,,,,1036.4924229606986,None,,,,,,,,,,,karton,1037.5143165393965,None,4,14.913519182242453,1037.5143165393965,None,1037.5143165393965,None,1037.5143165393965,None,hentes,1052.4768813686678,None,1052.4768813686678,None,down,1.7780182199785486,1052.4768813686678,None,1054.2982305001933,None,4,0.9347241936484352,1054.2982305001933,None,,,,,,,,,,,,,,,,,,,,,,,,,,,938383,2022_May_07_1220,palt,2021.1.2,52.81092426644857,
4,mocsár,ananász,,,,,,,,,3,0,3,0,,,,,0,7,7,3,,,,,,,,,1055.2533433145145,None,,,,,,,,,,,ananász,1056.261064038612,None,4,3.1988289379514754,1056.261064038612,None,1056.261064038612,None,1056.261064038612,None,mocsár,1059.4902589808917,None,1059.4902589808917,None,down,1.7888210135279223,1059.4902589808917,None,1061.3122805075254,None,4,0.9073006171965972,1061.3122805075254,None,,,,,,,,,,,,,,,,,,,,,,,,,,,938383,2022_May_07_1220,palt,2021.1.2,52.81092426644857,
6,menta,triatlon,,,,,,,,,3,0,3,0,,,,,0,8,8,5,,,,,,,,,1062.2393017044524,None,,,,,,,,,,,menta,1063.2578768490348,None,4,2.4548885789699852,1063.2578768490348,None,1063.2578768490348,None,1063.2578768490348,None,triatlon,1065.741317334352,None,1065.741317334352,None,down,2.1453163118567318,1065.741317334352,None,1067.9165390505223,None,4,0.19799202075228095,1067.9165390505223,None,,,,,,,,,,,,,,,,,,,,,,,,,,,938383,2022_May_07_1220,palt,2021.1.2,52.81092426644857,
7,csavarhúzó,hering,,,,,,,,,3,0,3,0,,,,,0,9,9,6,,,,,,,,,1068.136368358042,None,,,,,,,,,,,csavarhúzó,1069.1435314483242,None,4,11.753863005666062,1069.1435314483242,None,1069.1435314483242,None,1069.1435314483242,None, ,1080.9239266872173,None,1080.9239266872173,None,down,0.9785346766002476,1080.9239266872173,None,1081.9376874588197,None,4,1.3667348599992692,1081.9376874588197,None,,,,,,,,,,,,,,,,,,,,,,,,,,,938383,2022_May_07_1220,palt,2021.1.2,52.81092426644857,
,,,,,,,,,,,3,0,3,0,,,,,,,,,,,,,,,,,,,,,,,,,,,,,,,,,,,,,,,,,,,,,,,,,,,,,,,,,,,,,,,,,,,,,,,,,,,4,4.632953512016684,1083.3627188394312,None,1083.3627188394312,None,938383,2022_May_07_1220,palt,2021.1.2,52.81092426644857,
