"trial_type","trial_index","time_elapsed","internal_node_id","rt","responses","success","stimulus","key_press","cond","enc_response","condition","correct_response","correct","rec_response","targ_old","targ_sim","targ_new","lure_old","lure_sim","lure_new","foil_old","foil_sim","foil_new","recognition_ratio","ldi"
"pavlovia","0","3","0.0-0.0","","","","","","","","","","","","","","","","","","","","","",""
"survey-multi-choice","1","8252","0.0-1.0","8246","{""Q0"":""Igen"",""Q1"":""Igen""}","","","","","","","","","","","","","","","","","","","",""
"survey-text","2","24551","0.0-2.0-0.0","16297.599999904633","{""Q0"":""006150""}","","","","","","","","","","","","","","","","","","","",""
"fullscreen","3","26339","0.0-2.0-1.0","","","true","","","","","","","","","","","","","","","","","","",""
"html-keyboard-response","4","39126","0.0-2.0-2.0","12785.700000047684","","","<p>Üdvözöljük! Ez a feladat két részből áll, és összesen 10-15 percet vesz igénybe.</p>","32","","","","","","","","","","","","","","","","",""
"html-keyboard-response","5","63861","0.0-2.0-3.0-0.0","24733.299999952316","","","<p>Az első részben tárgyakat lát majd a képernyőn, egymás után fognak megjelenni.<br>Az Ön feladata eldönteni, hogy a tárgyak <i>beltéri vagy kültéri</i> tárgyak-e.</p>						   <p>Amennyiben a tárgyat általában beltéren látja, nyomja le a <b>C</b> billentyűt. Amennyiben a tárgyat általában kültéren látja, nyomja le az <b>M</b> billentyűt.</p>						   <p>Ebben a feladatban nincsen mindig egyértelműen jó megoldás. Válaszoljon legjobb tudása szerint. A válaszadásra 2 másodperce lesz.","32","","","","","","","","","","","","","","","","",""
"html-keyboard-response","6","65863","0.0-2.0-3.0-1.0","null","","","<p>Kezdődik a gyakorlás...</p>","null","","","","","","","","","","","","","","","","",""
"image-keyboard-response","7","68364","0.0-2.0-4.0-0.0","null","","","stimuli/Set_2_rs/165b.jpg","null","-","null","","","","","","","","","","","","","","",""
"html-keyboard-response","8","74885","0.0-2.0-4.0-1.0","5519.299999952316","","","<p>Az Ön válasza:</p><p>Nem adott választ.</p>","32","","","","","","","","","","","","","","","","",""
"image-keyboard-response","9","76888","0.0-2.0-4.0-0.1","1677.4000000953674","","","stimuli/Set_2_rs/034a.jpg","67","-","indoor","","","","","","","","","","","","","","",""
"html-keyboard-response","10","79621","0.0-2.0-4.0-1.1","2230.7000000476837","","","<p>Az Ön válasza:</p><p>Beltéri.</p>","32","","","","","","","","","","","","","","","","",""
"image-keyboard-response","11","81623","0.0-2.0-4.0-0.2","1310","","","stimuli/Set_2_rs/049a.jpg","77","SL","outdoor","","","","","","","","","","","","","","",""
"html-keyboard-response","12","82965","0.0-2.0-4.0-1.2","839.5","","","<p>Az Ön válasza:</p><p>Kültéri.</p>","32","","","","","","","","","","","","","","","","",""
"image-keyboard-response","13","84967","0.0-2.0-4.0-0.3","1214.0999999046326","","","stimuli/Set_2_rs/028a.jpg","67","SR","indoor","","","","","","","","","","","","","","",""
"html-keyboard-response","14","86148","0.0-2.0-4.0-1.3","679.5","","","<p>Az Ön válasza:</p><p>Beltéri.</p>","32","","","","","","","","","","","","","","","","",""
"image-keyboard-response","15","88150","0.0-2.0-4.0-0.4","1070.9000000953674","","","stimuli/Set_2_rs/135a.jpg","67","SL","indoor","","","","","","","","","","","","","","",""
"html-keyboard-response","16","89652","0.0-2.0-4.0-1.4","1000.2999999523163","","","<p>Az Ön válasza:</p><p>Beltéri.</p>","32","","","","","","","","","","","","","","","","",""
"image-keyboard-response","17","91655","0.0-2.0-4.0-0.5","1390.1000001430511","","","stimuli/Set_2_rs/137a.jpg","67","SR","indoor","","","","","","","","","","","","","","",""
"html-keyboard-response","18","92869","0.0-2.0-4.0-1.5","711.7000000476837","","","<p>Az Ön válasza:</p><p>Beltéri.</p>","32","","","","","","","","","","","","","","","","",""
"html-keyboard-response","19","99077","0.0-2.0-5.0-0.0","6207.300000190735","","","<p>Ez volt a gyakorlás. A feladat következik. A feladat alatt már nem kap visszajelzést.</p>","32","","","","","","","","","","","","","","","","",""
"html-keyboard-response","20","101079","0.0-2.0-5.0-1.0","null","","","<p>Kezdődik a feladat...</p>","null","","","","","","","","","","","","","","","","",""
"image-keyboard-response","21","103581","0.0-2.0-6.0-0.0","null","","","stimuli/Set_1_rs/157a.jpg","null","","null","SR","","","","","","","","","","","","","",""
"image-keyboard-response","22","106083","0.0-2.0-6.0-0.1","1157.8999998569489","","","stimuli/Set_1_rs/009a.jpg","67","","indoor","SR","","","","","","","","","","","","","",""
"image-keyboard-response","23","108584","0.0-2.0-6.0-0.2","1696.2000000476837","","","stimuli/Set_1_rs/059a.jpg","67","","indoor","SL","","","","","","","","","","","","","",""
"image-keyboard-response","24","111086","0.0-2.0-6.0-0.3","1850.7000000476837","","","stimuli/Set_1_rs/024a.jpg","67","","indoor","SR","","","","","","","","","","","","","",""
"image-keyboard-response","25","113589","0.0-2.0-6.0-0.4","1556.2999999523163","","","stimuli/Set_1_rs/101a.jpg","67","","indoor","SL","","","","","","","","","","","","","",""
"image-keyboard-response","26","116091","0.0-2.0-6.0-0.5","1165.7000000476837","","","stimuli/Set_1_rs/137a.jpg","77","","outdoor","SR","","","","","","","","","","","","","",""
"image-keyboard-response","27","118593","0.0-2.0-6.0-0.6","null","","","stimuli/Set_1_rs/011a.jpg","null","","null","SL","","","","","","","","","","","","","",""
"image-keyboard-response","28","121095","0.0-2.0-6.0-0.7","1137.9000000953674","","","stimuli/Set_1_rs/128a.jpg","67","","indoor","SL","","","","","","","","","","","","","",""
"image-keyboard-response","29","123599","0.0-2.0-6.0-0.8","1595.2999999523163","","","stimuli/Set_1_rs/083a.jpg","67","","indoor","SL","","","","","","","","","","","","","",""
"image-keyboard-response","30","126101","0.0-2.0-6.0-0.9","1620","","","stimuli/Set_1_rs/136a.jpg","67","","indoor","SR","","","","","","","","","","","","","",""
"image-keyboard-response","31","128603","0.0-2.0-6.0-0.10","1213.9000000953674","","","stimuli/Set_1_rs/103a.jpg","67","","indoor","SL","","","","","","","","","","","","","",""
"image-keyboard-response","32","131105","0.0-2.0-6.0-0.11","1095.7000000476837","","","stimuli/Set_1_rs/086a.jpg","67","","indoor","SR","","","","","","","","","","","","","",""
"image-keyboard-response","33","133608","0.0-2.0-6.0-0.12","1201.2000000476837","","","stimuli/Set_1_rs/099a.jpg","77","","outdoor","SL","","","","","","","","","","","","","",""
"image-keyboard-response","34","136110","0.0-2.0-6.0-0.13","null","","","stimuli/Set_1_rs/178a.jpg","null","","null","SL","","","","","","","","","","","","","",""
"image-keyboard-response","35","138612","0.0-2.0-6.0-0.14","1013.5","","","stimuli/Set_1_rs/134a.jpg","67","","indoor","SL","","","","","","","","","","","","","",""
"image-keyboard-response","36","141113","0.0-2.0-6.0-0.15","1103.2000000476837","","","stimuli/Set_1_rs/156a.jpg","67","","indoor","SL","","","","","","","","","","","","","",""
"image-keyboard-response","37","143615","0.0-2.0-6.0-0.16","1305.2000000476837","","","stimuli/Set_1_rs/054a.jpg","77","","outdoor","SR","","","","","","","","","","","","","",""
"image-keyboard-response","38","146117","0.0-2.0-6.0-0.17","1043.3999998569489","","","stimuli/Set_1_rs/092a.jpg","77","","outdoor","SL","","","","","","","","","","","","","",""
"image-keyboard-response","39","148619","0.0-2.0-6.0-0.18","null","","","stimuli/Set_1_rs/031a.jpg","null","","null","SL","","","","","","","","","","","","","",""
"image-keyboard-response","40","151121","0.0-2.0-6.0-0.19","1447.8999998569489","","","stimuli/Set_1_rs/013a.jpg","67","","indoor","SL","","","","","","","","","","","","","",""
"image-keyboard-response","41","153624","0.0-2.0-6.0-0.20","1553.5","","","stimuli/Set_1_rs/075a.jpg","67","","indoor","SL","","","","","","","","","","","","","",""
"image-keyboard-response","42","156127","0.0-2.0-6.0-0.21","2251.4000000953674","","","stimuli/Set_1_rs/150a.jpg","67","","indoor","SR","","","","","","","","","","","","","",""
"image-keyboard-response","43","158629","0.0-2.0-6.0-0.22","820.4000000953674","","","stimuli/Set_1_rs/094a.jpg","67","","indoor","SL","","","","","","","","","","","","","",""
"image-keyboard-response","44","161131","0.0-2.0-6.0-0.23","814.1000001430511","","","stimuli/Set_1_rs/090a.jpg","77","","outdoor","SL","","","","","","","","","","","","","",""
"image-keyboard-response","45","163633","0.0-2.0-6.0-0.24","1191.2000000476837","","","stimuli/Set_1_rs/192a.jpg","67","","indoor","SR","","","","","","","","","","","","","",""
"image-keyboard-response","46","166136","0.0-2.0-6.0-0.25","865.3999998569489","","","stimuli/Set_1_rs/116a.jpg","67","","indoor","SL","","","","","","","","","","","","","",""
"image-keyboard-response","47","168638","0.0-2.0-6.0-0.26","1115.2999999523163","","","stimuli/Set_1_rs/044a.jpg","67","","indoor","SR","","","","","","","","","","","","","",""
"image-keyboard-response","48","171140","0.0-2.0-6.0-0.27","1780.5","","","stimuli/Set_1_rs/114a.jpg","77","","outdoor","SL","","","","","","","","","","","","","",""
"image-keyboard-response","49","173642","0.0-2.0-6.0-0.28","1134","","","stimuli/Set_1_rs/112a.jpg","67","","indoor","SR","","","","","","","","","","","","","",""
"image-keyboard-response","50","176144","0.0-2.0-6.0-0.29","1160.7000000476837","","","stimuli/Set_1_rs/052a.jpg","67","","indoor","SL","","","","","","","","","","","","","",""
"image-keyboard-response","51","178646","0.0-2.0-6.0-0.30","2066.7000000476837","","","stimuli/Set_1_rs/058a.jpg","77","","outdoor","SR","","","","","","","","","","","","","",""
"image-keyboard-response","52","181147","0.0-2.0-6.0-0.31","1213.0999999046326","","","stimuli/Set_1_rs/023a.jpg","77","","outdoor","SL","","","","","","","","","","","","","",""
"image-keyboard-response","53","183650","0.0-2.0-6.0-0.32","1318.7000000476837","","","stimuli/Set_1_rs/030a.jpg","77","","outdoor","SR","","","","","","","","","","","","","",""
"image-keyboard-response","54","186152","0.0-2.0-6.0-0.33","2016.8999998569489","","","stimuli/Set_1_rs/091a.jpg","67","","indoor","SR","","","","","","","","","","","","","",""
"image-keyboard-response","55","188654","0.0-2.0-6.0-0.34","2075","","","stimuli/Set_1_rs/147a.jpg","67","","indoor","SR","","","","","","","","","","","","","",""
"image-keyboard-response","56","191156","0.0-2.0-6.0-0.35","1188.4000000953674","","","stimuli/Set_1_rs/063a.jpg","77","","outdoor","SR","","","","","","","","","","","","","",""
"image-keyboard-response","57","193659","0.0-2.0-6.0-0.36","1086","","","stimuli/Set_1_rs/040a.jpg","77","","outdoor","SR","","","","","","","","","","","","","",""
"image-keyboard-response","58","196160","0.0-2.0-6.0-0.37","1128.1000001430511","","","stimuli/Set_1_rs/038a.jpg","67","","indoor","SR","","","","","","","","","","","","","",""
"image-keyboard-response","59","198662","0.0-2.0-6.0-0.38","1330.5999999046326","","","stimuli/Set_1_rs/100a.jpg","67","","indoor","SL","","","","","","","","","","","","","",""
"image-keyboard-response","60","201164","0.0-2.0-6.0-0.39","1836.2000000476837","","","stimuli/Set_1_rs/109a.jpg","67","","indoor","SR","","","","","","","","","","","","","",""
"image-keyboard-response","61","203666","0.0-2.0-6.0-0.40","null","","","stimuli/Set_1_rs/191a.jpg","null","","null","SR","","","","","","","","","","","","","",""
"image-keyboard-response","62","206167","0.0-2.0-6.0-0.41","1072.5999999046326","","","stimuli/Set_1_rs/061a.jpg","67","","indoor","SL","","","","","","","","","","","","","",""
"image-keyboard-response","63","208670","0.0-2.0-6.0-0.42","1083","","","stimuli/Set_1_rs/162a.jpg","67","","indoor","SR","","","","","","","","","","","","","",""
"image-keyboard-response","64","211172","0.0-2.0-6.0-0.43","1012.5","","","stimuli/Set_1_rs/046a.jpg","77","","outdoor","SR","","","","","","","","","","","","","",""
"image-keyboard-response","65","213675","0.0-2.0-6.0-0.44","813.5999999046326","","","stimuli/Set_1_rs/155a.jpg","77","","outdoor","SL","","","","","","","","","","","","","",""
"image-keyboard-response","66","216177","0.0-2.0-6.0-0.45","1303.4000000953674","","","stimuli/Set_1_rs/010a.jpg","67","","indoor","SR","","","","","","","","","","","","","",""
"image-keyboard-response","67","218679","0.0-2.0-6.0-0.46","1217.1000001430511","","","stimuli/Set_1_rs/142a.jpg","77","","outdoor","SR","","","","","","","","","","","","","",""
"image-keyboard-response","68","221181","0.0-2.0-6.0-0.47","1163.2000000476837","","","stimuli/Set_1_rs/045a.jpg","77","","outdoor","SL","","","","","","","","","","","","","",""
"image-keyboard-response","69","223683","0.0-2.0-6.0-0.48","628.5","","","stimuli/Set_1_rs/070a.jpg","77","","outdoor","SR","","","","","","","","","","","","","",""
"image-keyboard-response","70","226185","0.0-2.0-6.0-0.49","1582.9000000953674","","","stimuli/Set_1_rs/022a.jpg","77","","outdoor","SL","","","","","","","","","","","","","",""
"image-keyboard-response","71","228688","0.0-2.0-6.0-0.50","1449","","","stimuli/Set_1_rs/021a.jpg","67","","indoor","SR","","","","","","","","","","","","","",""
"image-keyboard-response","72","231191","0.0-2.0-6.0-0.51","1170.2999999523163","","","stimuli/Set_1_rs/098a.jpg","67","","indoor","SL","","","","","","","","","","","","","",""
"image-keyboard-response","73","233694","0.0-2.0-6.0-0.52","1114.3999998569489","","","stimuli/Set_1_rs/008a.jpg","67","","indoor","SL","","","","","","","","","","","","","",""
"image-keyboard-response","74","236196","0.0-2.0-6.0-0.53","1316.1999998092651","","","stimuli/Set_1_rs/012a.jpg","67","","indoor","SL","","","","","","","","","","","","","",""
"image-keyboard-response","75","238698","0.0-2.0-6.0-0.54","1230.5","","","stimuli/Set_1_rs/153a.jpg","67","","indoor","SR","","","","","","","","","","","","","",""
"image-keyboard-response","76","241200","0.0-2.0-6.0-0.55","1736.1000001430511","","","stimuli/Set_1_rs/068a.jpg","67","","indoor","SL","","","","","","","","","","","","","",""
"image-keyboard-response","77","243703","0.0-2.0-6.0-0.56","945.2000000476837","","","stimuli/Set_1_rs/140a.jpg","67","","indoor","SL","","","","","","","","","","","","","",""
"image-keyboard-response","78","246206","0.0-2.0-6.0-0.57","1371.2000000476837","","","stimuli/Set_1_rs/029a.jpg","77","","outdoor","SR","","","","","","","","","","","","","",""
"image-keyboard-response","79","248707","0.0-2.0-6.0-0.58","660.4000000953674","","","stimuli/Set_1_rs/049a.jpg","77","","outdoor","SR","","","","","","","","","","","","","",""
"image-keyboard-response","80","251209","0.0-2.0-6.0-0.59","1006.5999999046326","","","stimuli/Set_1_rs/180a.jpg","67","","indoor","SR","","","","","","","","","","","","","",""
"image-keyboard-response","81","253712","0.0-2.0-6.0-0.60","1240.5999999046326","","","stimuli/Set_1_rs/033a.jpg","67","","indoor","SL","","","","","","","","","","","","","",""
"image-keyboard-response","82","256214","0.0-2.0-6.0-0.61","1442.2000000476837","","","stimuli/Set_1_rs/119a.jpg","67","","indoor","SL","","","","","","","","","","","","","",""
"image-keyboard-response","83","258716","0.0-2.0-6.0-0.62","1212.3000001907349","","","stimuli/Set_1_rs/118a.jpg","77","","outdoor","SR","","","","","","","","","","","","","",""
"image-keyboard-response","84","261217","0.0-2.0-6.0-0.63","1174.3000001907349","","","stimuli/Set_1_rs/107a.jpg","77","","outdoor","SR","","","","","","","","","","","","","",""
"html-keyboard-response","85","272067","0.0-2.0-7.0","10849.400000095367","","","<p>Vége a feladat első részének. Tartson egy pár perces szünetet.</p>","32","","","","","","","","","","","","","","","","",""
"html-keyboard-response","86","288195","0.0-2.0-8.0-0.0","16127","","","<p>A következőkben ismét tárgyak jelennek majd meg a képernyőn, egymás után.<br>Az Ön feladata eldönteni, látta-e már ezeket a tárgyakat a vizsgálat első felében.</p>		        			<p>Amennyiben pontosan ugyanezt a tárgyat látta (a tárgy <i>régi</i>), nyomja le a <b>C</b> billentyűt.</p>		        			<p>Amennyiben hasonló tárgyat látott (a tárgy <i>hasonló</i>), nyomja le a <b>B</b> billentyűt.</p>		        			<p>Amennyiben nem látta ezt a tárgyat az első részben (a tárgy <i>új</i>), nyomja le az <b>M</b> billentyűt.</p>","32","","","","","","","","","","","","","","","","",""
"html-keyboard-response","87","290197","0.0-2.0-8.0-1.0","null","","","<p>Kezdődik a gyakorlás...</p>","null","","","","","","","","","","","","","","","","",""
"image-keyboard-response","88","294200","0.0-2.0-9.0-0.0","2171.399999856949","","","stimuli/Set_2_rs/049b.jpg","67","","","TL","l","false","o","","","","","","","","","","",""
"html-keyboard-response","89","299155","0.0-2.0-9.0-1.0","4952.700000047684","","","<p>A helyes válasz: Hasonló.</p><p>Az Ön válasza: Régi.</p>","32","","","","","","","","","","","","","","","","",""
"image-keyboard-response","90","303158","0.0-2.0-9.0-0.1","2365.7000000476837","","","stimuli/Set_2_rs/018b.jpg","66","","","TF","n","false","s","","","","","","","","","","",""
"html-keyboard-response","91","305539","0.0-2.0-9.0-1.1","2379.0999999046326","","","<p>A helyes válasz: Új.</p><p>Az Ön válasza: Hasonló.</p>","32","","","","","","","","","","","","","","","","",""
"image-keyboard-response","92","309541","0.0-2.0-9.0-0.2","2030.0999999046326","","","stimuli/Set_2_rs/028a.jpg","67","","","TR","o","true","o","","","","","","","","","","",""
"html-keyboard-response","93","311123","0.0-2.0-9.0-1.2","1580.1999998092651","","","<p>A helyes válasz: Régi.</p><p>Az Ön válasza: Régi.</p>","32","","","","","","","","","","","","","","","","",""
"image-keyboard-response","94","315125","0.0-2.0-9.0-0.3","1181.7999999523163","","","stimuli/Set_2_rs/137a.jpg","67","","","TR","o","true","o","","","","","","","","","","",""
"html-keyboard-response","95","316803","0.0-2.0-9.0-1.3","1676","","","<p>A helyes válasz: Régi.</p><p>Az Ön válasza: Régi.</p>","32","","","","","","","","","","","","","","","","",""
"image-keyboard-response","96","320806","0.0-2.0-9.0-0.4","1005.7000000476837","","","stimuli/Set_2_rs/135b.jpg","67","","","TL","l","false","o","","","","","","","","","","",""
"html-keyboard-response","97","323171","0.0-2.0-9.0-1.4","2363.4000000953674","","","<p>A helyes válasz: Hasonló.</p><p>Az Ön válasza: Régi.</p>","32","","","","","","","","","","","","","","","","",""
"image-keyboard-response","98","327174","0.0-2.0-9.0-0.5","2493.5999999046326","","","stimuli/Set_2_rs/019a.jpg","77","","","TF","n","true","n","","","","","","","","","","",""
"html-keyboard-response","99","328723","0.0-2.0-9.0-1.5","1547","","","<p>A helyes válasz: Új.</p><p>Az Ön válasza: Új.</p>","32","","","","","","","","","","","","","","","","",""
"html-keyboard-response","100","331074","0.0-2.0-10.0-0.0","2351","","","<p>Ez volt a gyakorlás. A feladat következik. A feladat alatt már nem kap visszajelzést.</p>","32","","","","","","","","","","","","","","","","",""
"html-keyboard-response","101","333075","0.0-2.0-10.0-1.0","null","","","<p>Kezdődik a feladat...</p>","null","","","","","","","","","","","","","","","","",""
"image-keyboard-response","102","337578","0.0-2.0-11.0-0.0","2348.7999999523163","","","stimuli/Set_1_rs/181a.jpg","77","","","TF","n","true","n","","","","","","","","","","",""
"image-keyboard-response","103","342081","0.0-2.0-11.0-0.1","1589.4000000953674","","","stimuli/Set_1_rs/152a.jpg","77","","","TF","n","true","n","","","","","","","","","","",""
"image-keyboard-response","104","346584","0.0-2.0-11.0-0.2","4078.7999999523163","","","stimuli/Set_1_rs/090b.jpg","67","","","TL","s","false","o","","","","","","","","","","",""
"image-keyboard-response","105","351086","0.0-2.0-11.0-0.3","1896.1000001430511","","","stimuli/Set_1_rs/126a.jpg","77","","","TF","n","true","n","","","","","","","","","","",""
"image-keyboard-response","106","355589","0.0-2.0-11.0-0.4","2241.399999856949","","","stimuli/Set_1_rs/068b.jpg","67","","","TL","s","false","o","","","","","","","","","","",""
"image-keyboard-response","107","360093","0.0-2.0-11.0-0.5","1114.7000000476837","","","stimuli/Set_1_rs/054a.jpg","67","","","TR","o","true","o","","","","","","","","","","",""
"image-keyboard-response","108","364596","0.0-2.0-11.0-0.6","851.1999998092651","","","stimuli/Set_1_rs/162a.jpg","67","","","TR","o","true","o","","","","","","","","","","",""
"image-keyboard-response","109","369099","0.0-2.0-11.0-0.7","1419.5999999046326","","","stimuli/Set_1_rs/019a.jpg","77","","","TF","n","true","n","","","","","","","","","","",""
"image-keyboard-response","110","373602","0.0-2.0-11.0-0.8","3445.0999999046326","","","stimuli/Set_1_rs/119b.jpg","66","","","TL","s","true","s","","","","","","","","","","",""
"image-keyboard-response","111","378105","0.0-2.0-11.0-0.9","1933.7000000476837","","","stimuli/Set_1_rs/052b.jpg","67","","","TL","s","false","o","","","","","","","","","","",""
"image-keyboard-response","112","382609","0.0-2.0-11.0-0.10","1719","","","stimuli/Set_1_rs/135a.jpg","77","","","TF","n","true","n","","","","","","","","","","",""
"image-keyboard-response","113","387112","0.0-2.0-11.0-0.11","1119.2000000476837","","","stimuli/Set_1_rs/004a.jpg","77","","","TF","n","true","n","","","","","","","","","","",""
"image-keyboard-response","114","391615","0.0-2.0-11.0-0.12","1095.8999998569489","","","stimuli/Set_1_rs/072a.jpg","77","","","TF","n","true","n","","","","","","","","","","",""
"image-keyboard-response","115","396119","0.0-2.0-11.0-0.13","1121","","","stimuli/Set_1_rs/028a.jpg","77","","","TF","n","true","n","","","","","","","","","","",""
"image-keyboard-response","116","400622","0.0-2.0-11.0-0.14","1401.4000000953674","","","stimuli/Set_1_rs/091a.jpg","67","","","TR","o","true","o","","","","","","","","","","",""
"image-keyboard-response","117","405125","0.0-2.0-11.0-0.15","1153.7000000476837","","","stimuli/Set_1_rs/108a.jpg","77","","","TF","n","true","n","","","","","","","","","","",""
"image-keyboard-response","118","409629","0.0-2.0-11.0-0.16","2714.2999999523163","","","stimuli/Set_1_rs/146a.jpg","66","","","TF","n","false","s","","","","","","","","","","",""
"image-keyboard-response","119","414132","0.0-2.0-11.0-0.17","2210.7999999523163","","","stimuli/Set_1_rs/013b.jpg","67","","","TL","s","false","o","","","","","","","","","","",""
"image-keyboard-response","120","418636","0.0-2.0-11.0-0.18","2011.2999999523163","","","stimuli/Set_1_rs/141a.jpg","77","","","TF","n","true","n","","","","","","","","","","",""
"image-keyboard-response","121","423138","0.0-2.0-11.0-0.19","1364.5","","","stimuli/Set_1_rs/156b.jpg","67","","","TL","s","false","o","","","","","","","","","","",""
"image-keyboard-response","122","427642","0.0-2.0-11.0-0.20","1229.0999999046326","","","stimuli/Set_1_rs/024a.jpg","67","","","TR","o","true","o","","","","","","","","","","",""
"image-keyboard-response","123","432145","0.0-2.0-11.0-0.21","1525.6000001430511","","","stimuli/Set_1_rs/046a.jpg","67","","","TR","o","true","o","","","","","","","","","","",""
"image-keyboard-response","124","436649","0.0-2.0-11.0-0.22","1790.0999999046326","","","stimuli/Set_1_rs/100b.jpg","67","","","TL","s","false","o","","","","","","","","","","",""
"image-keyboard-response","125","441152","0.0-2.0-11.0-0.23","1366.5","","","stimuli/Set_1_rs/080a.jpg","77","","","TF","n","true","n","","","","","","","","","","",""
"image-keyboard-response","126","445655","0.0-2.0-11.0-0.24","1071.7000000476837","","","stimuli/Set_1_rs/094b.jpg","67","","","TL","s","false","o","","","","","","","","","","",""
"image-keyboard-response","127","450158","0.0-2.0-11.0-0.25","1096.3000001907349","","","stimuli/Set_1_rs/190a.jpg","77","","","TF","n","true","n","","","","","","","","","","",""
"image-keyboard-response","128","454661","0.0-2.0-11.0-0.26","1921.2000000476837","","","stimuli/Set_1_rs/137a.jpg","67","","","TR","o","true","o","","","","","","","","","","",""
"image-keyboard-response","129","459164","0.0-2.0-11.0-0.27","1033.7999999523163","","","stimuli/Set_1_rs/180a.jpg","67","","","TR","o","true","o","","","","","","","","","","",""
"image-keyboard-response","130","463669","0.0-2.0-11.0-0.28","1107","","","stimuli/Set_1_rs/134b.jpg","67","","","TL","s","false","o","","","","","","","","","","",""
"image-keyboard-response","131","468171","0.0-2.0-11.0-0.29","1579.0999999046326","","","stimuli/Set_1_rs/088a.jpg","77","","","TF","n","true","n","","","","","","","","","","",""
"image-keyboard-response","132","472675","0.0-2.0-11.0-0.30","1043.7999999523163","","","stimuli/Set_1_rs/165a.jpg","77","","","TF","n","true","n","","","","","","","","","","",""
"image-keyboard-response","133","477179","0.0-2.0-11.0-0.31","2332.399999856949","","","stimuli/Set_1_rs/075b.jpg","66","","","TL","s","true","s","","","","","","","","","","",""
"image-keyboard-response","134","481682","0.0-2.0-11.0-0.32","1796.5999999046326","","","stimuli/Set_1_rs/191a.jpg","67","","","TR","o","true","o","","","","","","","","","","",""
"image-keyboard-response","135","486185","0.0-2.0-11.0-0.33","3229.199999809265","","","stimuli/Set_1_rs/112a.jpg","66","","","TR","o","false","s","","","","","","","","","","",""
"image-keyboard-response","136","490689","0.0-2.0-11.0-0.34","1798.3999998569489","","","stimuli/Set_1_rs/171a.jpg","77","","","TF","n","true","n","","","","","","","","","","",""
"image-keyboard-response","137","495192","0.0-2.0-11.0-0.35","1326.2999999523163","","","stimuli/Set_1_rs/021a.jpg","67","","","TR","o","true","o","","","","","","","","","","",""
"image-keyboard-response","138","499695","0.0-2.0-11.0-0.36","1143.2000000476837","","","stimuli/Set_1_rs/157a.jpg","67","","","TR","o","true","o","","","","","","","","","","",""
"image-keyboard-response","139","504198","0.0-2.0-11.0-0.37","1968.4000000953674","","","stimuli/Set_1_rs/059b.jpg","66","","","TL","s","true","s","","","","","","","","","","",""
"image-keyboard-response","140","508703","0.0-2.0-11.0-0.38","1816.2999999523163","","","stimuli/Set_1_rs/153a.jpg","67","","","TR","o","true","o","","","","","","","","","","",""
"image-keyboard-response","141","513205","0.0-2.0-11.0-0.39","1904.5","","","stimuli/Set_1_rs/002a.jpg","77","","","TF","n","true","n","","","","","","","","","","",""
"image-keyboard-response","142","517708","0.0-2.0-11.0-0.40","1785.7000000476837","","","stimuli/Set_1_rs/041a.jpg","77","","","TF","n","true","n","","","","","","","","","","",""
"image-keyboard-response","143","522211","0.0-2.0-11.0-0.41","1938.5","","","stimuli/Set_1_rs/012b.jpg","67","","","TL","s","false","o","","","","","","","","","","",""
"image-keyboard-response","144","526714","0.0-2.0-11.0-0.42","1083.6000001430511","","","stimuli/Set_1_rs/083b.jpg","67","","","TL","s","false","o","","","","","","","","","","",""
"image-keyboard-response","145","531218","0.0-2.0-11.0-0.43","3012.2999999523163","","","stimuli/Set_1_rs/051a.jpg","66","","","TF","n","false","s","","","","","","","","","","",""
"image-keyboard-response","146","535720","0.0-2.0-11.0-0.44","1628.8999998569489","","","stimuli/Set_1_rs/168a.jpg","77","","","TF","n","true","n","","","","","","","","","","",""
"image-keyboard-response","147","540223","0.0-2.0-11.0-0.45","1622.5999999046326","","","stimuli/Set_1_rs/155b.jpg","67","","","TL","s","false","o","","","","","","","","","","",""
"image-keyboard-response","148","544726","0.0-2.0-11.0-0.46","2608.4000000953674","","","stimuli/Set_1_rs/045b.jpg","67","","","TL","s","false","o","","","","","","","","","","",""
"image-keyboard-response","149","549229","0.0-2.0-11.0-0.47","3560.9000000953674","","","stimuli/Set_1_rs/031b.jpg","77","","","TL","s","false","n","","","","","","","","","","",""
"image-keyboard-response","150","553733","0.0-2.0-11.0-0.48","4113.200000047684","","","stimuli/Set_1_rs/136a.jpg","66","","","TR","o","false","s","","","","","","","","","","",""
"image-keyboard-response","151","558236","0.0-2.0-11.0-0.49","1337.7000000476837","","","stimuli/Set_1_rs/053a.jpg","77","","","TF","n","true","n","","","","","","","","","","",""
"image-keyboard-response","152","562740","0.0-2.0-11.0-0.50","1234.3000001907349","","","stimuli/Set_1_rs/061b.jpg","77","","","TL","s","false","n","","","","","","","","","","",""
"image-keyboard-response","153","567243","0.0-2.0-11.0-0.51","1210.4000000953674","","","stimuli/Set_1_rs/062a.jpg","77","","","TF","n","true","n","","","","","","","","","","",""
"image-keyboard-response","154","571747","0.0-2.0-11.0-0.52","3235.4000000953674","","","stimuli/Set_1_rs/009a.jpg","66","","","TR","o","false","s","","","","","","","","","","",""
"image-keyboard-response","155","576250","0.0-2.0-11.0-0.53","2011.0999999046326","","","stimuli/Set_1_rs/099b.jpg","67","","","TL","s","false","o","","","","","","","","","","",""
"image-keyboard-response","156","580753","0.0-2.0-11.0-0.54","3492.800000190735","","","stimuli/Set_1_rs/030a.jpg","67","","","TR","o","true","o","","","","","","","","","","",""
"image-keyboard-response","157","585256","0.0-2.0-11.0-0.55","1837.2000000476837","","","stimuli/Set_1_rs/029a.jpg","67","","","TR","o","true","o","","","","","","","","","","",""
"image-keyboard-response","158","589760","0.0-2.0-11.0-0.56","1093.7999999523163","","","stimuli/Set_1_rs/140b.jpg","67","","","TL","s","false","o","","","","","","","","","","",""
"image-keyboard-response","159","594263","0.0-2.0-11.0-0.57","1630.0999999046326","","","stimuli/Set_1_rs/182a.jpg","77","","","TF","n","true","n","","","","","","","","","","",""
"image-keyboard-response","160","598767","0.0-2.0-11.0-0.58","1718.7999999523163","","","stimuli/Set_1_rs/151a.jpg","77","","","TF","n","true","n","","","","","","","","","","",""
"image-keyboard-response","161","603270","0.0-2.0-11.0-0.59","2943.2999999523163","","","stimuli/Set_1_rs/142a.jpg","66","","","TR","o","false","s","","","","","","","","","","",""
"image-keyboard-response","162","607774","0.0-2.0-11.0-0.60","1495.6999998092651","","","stimuli/Set_1_rs/070a.jpg","67","","","TR","o","true","o","","","","","","","","","","",""
"image-keyboard-response","163","612277","0.0-2.0-11.0-0.61","1440.2999999523163","","","stimuli/Set_1_rs/121a.jpg","77","","","TF","n","true","n","","","","","","","","","","",""
"image-keyboard-response","164","616780","0.0-2.0-11.0-0.62","3769.100000143051","","","stimuli/Set_1_rs/008b.jpg","66","","","TL","s","true","s","","","","","","","","","","",""
"image-keyboard-response","165","621283","0.0-2.0-11.0-0.63","1489.5","","","stimuli/Set_1_rs/092b.jpg","67","","","TL","s","false","o","","","","","","","","","","",""
"image-keyboard-response","166","625786","0.0-2.0-11.0-0.64","1275.3000001907349","","","stimuli/Set_1_rs/192a.jpg","67","","","TR","o","true","o","","","","","","","","","","",""
"image-keyboard-response","167","630290","0.0-2.0-11.0-0.65","1396.2000000476837","","","stimuli/Set_1_rs/147a.jpg","67","","","TR","o","true","o","","","","","","","","","","",""
"image-keyboard-response","168","634793","0.0-2.0-11.0-0.66","1451.7999999523163","","","stimuli/Set_1_rs/032a.jpg","77","","","TF","n","true","n","","","","","","","","","","",""
"image-keyboard-response","169","639296","0.0-2.0-11.0-0.67","1653","","","stimuli/Set_1_rs/128b.jpg","67","","","TL","s","false","o","","","","","","","","","","",""
"image-keyboard-response","170","643799","0.0-2.0-11.0-0.68","1917.8999998569489","","","stimuli/Set_1_rs/186a.jpg","77","","","TF","n","true","n","","","","","","","","","","",""
"image-keyboard-response","171","648302","0.0-2.0-11.0-0.69","2454.600000143051","","","stimuli/Set_1_rs/109a.jpg","67","","","TR","o","true","o","","","","","","","","","","",""
"image-keyboard-response","172","652805","0.0-2.0-11.0-0.70","1374.8999998569489","","","stimuli/Set_1_rs/160a.jpg","77","","","TF","n","true","n","","","","","","","","","","",""
"image-keyboard-response","173","657309","0.0-2.0-11.0-0.71","1512.2999999523163","","","stimuli/Set_1_rs/086a.jpg","77","","","TR","o","false","n","","","","","","","","","","",""
"image-keyboard-response","174","661812","0.0-2.0-11.0-0.72","3216.5","","","stimuli/Set_1_rs/023b.jpg","67","","","TL","s","false","o","","","","","","","","","","",""
"image-keyboard-response","175","666315","0.0-2.0-11.0-0.73","3097.2000000476837","","","stimuli/Set_1_rs/114b.jpg","67","","","TL","s","false","o","","","","","","","","","","",""
"image-keyboard-response","176","670819","0.0-2.0-11.0-0.74","3858.2999999523163","","","stimuli/Set_1_rs/033b.jpg","67","","","TL","s","false","o","","","","","","","","","","",""
"image-keyboard-response","177","675321","0.0-2.0-11.0-0.75","1515.1999998092651","","","stimuli/Set_1_rs/010a.jpg","67","","","TR","o","true","o","","","","","","","","","","",""
"image-keyboard-response","178","679825","0.0-2.0-11.0-0.76","3012.2999999523163","","","stimuli/Set_1_rs/150a.jpg","67","","","TR","o","true","o","","","","","","","","","","",""
"image-keyboard-response","179","684328","0.0-2.0-11.0-0.77","1116.7000000476837","","","stimuli/Set_1_rs/038a.jpg","67","","","TR","o","true","o","","","","","","","","","","",""
"image-keyboard-response","180","688831","0.0-2.0-11.0-0.78","2245.300000190735","","","stimuli/Set_1_rs/022b.jpg","67","","","TL","s","false","o","","","","","","","","","","",""
"image-keyboard-response","181","693334","0.0-2.0-11.0-0.79","1422.7999999523163","","","stimuli/Set_1_rs/018a.jpg","77","","","TF","n","true","n","","","","","","","","","","",""
"image-keyboard-response","182","697837","0.0-2.0-11.0-0.80","1687.0999999046326","","","stimuli/Set_1_rs/081a.jpg","77","","","TF","n","true","n","","","","","","","","","","",""
"image-keyboard-response","183","702340","0.0-2.0-11.0-0.81","2128.2000000476837","","","stimuli/Set_1_rs/107a.jpg","67","","","TR","o","true","o","","","","","","","","","","",""
"image-keyboard-response","184","706843","0.0-2.0-11.0-0.82","1064.7000000476837","","","stimuli/Set_1_rs/101b.jpg","67","","","TL","s","false","o","","","","","","","","","","",""
"image-keyboard-response","185","711348","0.0-2.0-11.0-0.83","3233.5","","","stimuli/Set_1_rs/178b.jpg","66","","","TL","s","true","s","","","","","","","","","","",""
"image-keyboard-response","186","715851","0.0-2.0-11.0-0.84","2025","","","stimuli/Set_1_rs/103b.jpg","77","","","TL","s","false","n","","","","","","","","","","",""
"image-keyboard-response","187","720354","0.0-2.0-11.0-0.85","1873.7999999523163","","","stimuli/Set_1_rs/116b.jpg","67","","","TL","s","false","o","","","","","","","","","","",""
"image-keyboard-response","188","724857","0.0-2.0-11.0-0.86","1450.3999998569489","","","stimuli/Set_1_rs/122a.jpg","77","","","TF","n","true","n","","","","","","","","","","",""
"image-keyboard-response","189","729361","0.0-2.0-11.0-0.87","1555.3999998569489","","","stimuli/Set_1_rs/044a.jpg","77","","","TR","o","false","n","","","","","","","","","","",""
"image-keyboard-response","190","733864","0.0-2.0-11.0-0.88","1403.7999999523163","","","stimuli/Set_1_rs/049a.jpg","67","","","TR","o","true","o","","","","","","","","","","",""
"image-keyboard-response","191","738369","0.0-2.0-11.0-0.89","1556.5999999046326","","","stimuli/Set_1_rs/118a.jpg","67","","","TR","o","true","o","","","","","","","","","","",""
"image-keyboard-response","192","742872","0.0-2.0-11.0-0.90","940.5999999046326","","","stimuli/Set_1_rs/040a.jpg","67","","","TR","o","true","o","","","","","","","","","","",""
"image-keyboard-response","193","747376","0.0-2.0-11.0-0.91","1332.3000001907349","","","stimuli/Set_1_rs/011b.jpg","67","","","TL","s","false","o","","","","","","","","","","",""
"image-keyboard-response","194","751879","0.0-2.0-11.0-0.92","1036.7999999523163","","","stimuli/Set_1_rs/087a.jpg","77","","","TF","n","true","n","","","","","","","","","","",""
"image-keyboard-response","195","756382","0.0-2.0-11.0-0.93","1653.5999999046326","","","stimuli/Set_1_rs/063a.jpg","67","","","TR","o","true","o","","","","","","","","","","",""
"image-keyboard-response","196","760885","0.0-2.0-11.0-0.94","1742.9000000953674","","","stimuli/Set_1_rs/098b.jpg","67","","","TL","s","false","o","","","","","","","","","","",""
"image-keyboard-response","197","765389","0.0-2.0-11.0-0.95","3607.0999999046326","","","stimuli/Set_1_rs/058a.jpg","66","","","TR","o","false","s","","","","","","","","","","",""
"html-keyboard-response","198","783695","0.0-3.0","18304.300000190735","","","<p>Vége a feladatnak. Köszönjük a részvételt!</p>","32","","","","","","","27","5","2","26","5","3","0","3","31","0.7941176470588235","0.058823529411764705"
