"trial_type","trial_index","time_elapsed","internal_node_id","rt","responses","success","stimulus","key_press","cond","enc_response","condition","correct_response","correct","rec_response","targ_old","targ_sim","targ_new","lure_old","lure_sim","lure_new","foil_old","foil_sim","foil_new","recognition_ratio","ldi"
"pavlovia","0","3","0.0-0.0","","","","","","","","","","","","","","","","","","","","","",""
"survey-multi-choice","1","4690","0.0-1.0","4684.5","{""Q0"":""Igen"",""Q1"":""Igen""}","","","","","","","","","","","","","","","","","","","",""
"survey-text","2","30037","0.0-2.0-0.0","25345.299999713898","{""Q0"":""421865""}","","","","","","","","","","","","","","","","","","","",""
"fullscreen","3","33183","0.0-2.0-1.0","","","true","","","","","","","","","","","","","","","","","","",""
"html-keyboard-response","4","45989","0.0-2.0-2.0","12804.5","","","<p>Üdvözöljük! Ez a feladat két részből áll, és összesen 10-15 percet vesz igénybe.</p>","32","","","","","","","","","","","","","","","","",""
"html-keyboard-response","5","70947","0.0-2.0-3.0-0.0","24957.199999809265","","","<p>Az első részben tárgyakat lát majd a képernyőn, egymás után fognak megjelenni.<br>Az Ön feladata eldönteni, hogy a tárgyak <i>beltéri vagy kültéri</i> tárgyak-e.</p>						   <p>Amennyiben a tárgyat általában beltéren látja, nyomja le a <b>C</b> billentyűt. Amennyiben a tárgyat általában kültéren látja, nyomja le az <b>M</b> billentyűt.</p>						   <p>Ebben a feladatban nincsen mindig egyértelműen jó megoldás. Válaszoljon legjobb tudása szerint. A válaszadásra 2 másodperce lesz.","32","","","","","","","","","","","","","","","","",""
"html-keyboard-response","6","72950","0.0-2.0-3.0-1.0","null","","","<p>Kezdődik a gyakorlás...</p>","null","","","","","","","","","","","","","","","","",""
"image-keyboard-response","7","74953","0.0-2.0-4.0-0.0","1898.1999998092651","","","stimuli/Set_2_rs/165b.jpg","77","-","outdoor","","","","","","","","","","","","","","",""
"html-keyboard-response","8","77587","0.0-2.0-4.0-1.0","2131","","","<p>Az Ön válasza:</p><p>Kültéri.</p>","32","","","","","","","","","","","","","","","","",""
"image-keyboard-response","9","79589","0.0-2.0-4.0-0.1","null","","","stimuli/Set_2_rs/034a.jpg","null","-","null","","","","","","","","","","","","","","",""
"html-keyboard-response","10","81779","0.0-2.0-4.0-1.1","1688.0999999046326","","","<p>Az Ön válasza:</p><p>Nem adott választ.</p>","32","","","","","","","","","","","","","","","","",""
"image-keyboard-response","11","83781","0.0-2.0-4.0-0.2","1294.0999999046326","","","stimuli/Set_2_rs/049a.jpg","77","SL","outdoor","","","","","","","","","","","","","","",""
"html-keyboard-response","12","87395","0.0-2.0-4.0-1.2","3111.5","","","<p>Az Ön válasza:</p><p>Kültéri.</p>","32","","","","","","","","","","","","","","","","",""
"image-keyboard-response","13","89397","0.0-2.0-4.0-0.3","1710","","","stimuli/Set_2_rs/028a.jpg","67","SR","indoor","","","","","","","","","","","","","","",""
"html-keyboard-response","14","92931","0.0-2.0-4.0-1.3","3031.9000000953674","","","<p>Az Ön válasza:</p><p>Beltéri.</p>","32","","","","","","","","","","","","","","","","",""
"image-keyboard-response","15","94934","0.0-2.0-4.0-0.4","1310.3000001907349","","","stimuli/Set_2_rs/135a.jpg","67","SL","indoor","","","","","","","","","","","","","","",""
"html-keyboard-response","16","96355","0.0-2.0-4.0-1.4","919.3999996185303","","","<p>Az Ön válasza:</p><p>Beltéri.</p>","32","","","","","","","","","","","","","","","","",""
"image-keyboard-response","17","98357","0.0-2.0-4.0-0.5","1790.1999998092651","","","stimuli/Set_2_rs/137a.jpg","67","SR","indoor","","","","","","","","","","","","","","",""
"html-keyboard-response","18","99379","0.0-2.0-4.0-1.5","519.9000000953674","","","<p>Az Ön válasza:</p><p>Beltéri.</p>","32","","","","","","","","","","","","","","","","",""
"html-keyboard-response","19","102579","0.0-2.0-5.0-0.0","3199.199999809265","","","<p>Ez volt a gyakorlás. A feladat következik. A feladat alatt már nem kap visszajelzést.</p>","32","","","","","","","","","","","","","","","","",""
"html-keyboard-response","20","104580","0.0-2.0-5.0-1.0","null","","","<p>Kezdődik a feladat...</p>","null","","","","","","","","","","","","","","","","",""
"image-keyboard-response","21","107083","0.0-2.0-6.0-0.0","1948.6999998092651","","","stimuli/Set_1_rs/157a.jpg","77","","outdoor","SR","","","","","","","","","","","","","",""
"image-keyboard-response","22","109585","0.0-2.0-6.0-0.1","1269.9000000953674","","","stimuli/Set_1_rs/009a.jpg","67","","indoor","SR","","","","","","","","","","","","","",""
"image-keyboard-response","23","112087","0.0-2.0-6.0-0.2","2144","","","stimuli/Set_1_rs/059a.jpg","67","","indoor","SL","","","","","","","","","","","","","",""
"image-keyboard-response","24","114589","0.0-2.0-6.0-0.3","1225.9000000953674","","","stimuli/Set_1_rs/024a.jpg","77","","outdoor","SR","","","","","","","","","","","","","",""
"image-keyboard-response","25","117091","0.0-2.0-6.0-0.4","1395.8000001907349","","","stimuli/Set_1_rs/101a.jpg","77","","outdoor","SL","","","","","","","","","","","","","",""
"image-keyboard-response","26","119593","0.0-2.0-6.0-0.5","1373.5999999046326","","","stimuli/Set_1_rs/137a.jpg","77","","outdoor","SR","","","","","","","","","","","","","",""
"image-keyboard-response","27","122096","0.0-2.0-6.0-0.6","1959.9000000953674","","","stimuli/Set_1_rs/011a.jpg","67","","indoor","SL","","","","","","","","","","","","","",""
"image-keyboard-response","28","124598","0.0-2.0-6.0-0.7","1633.5","","","stimuli/Set_1_rs/128a.jpg","67","","indoor","SL","","","","","","","","","","","","","",""
"image-keyboard-response","29","127100","0.0-2.0-6.0-0.8","1626.9000000953674","","","stimuli/Set_1_rs/083a.jpg","77","","outdoor","SL","","","","","","","","","","","","","",""
"image-keyboard-response","30","129603","0.0-2.0-6.0-0.9","null","","","stimuli/Set_1_rs/136a.jpg","null","","null","SR","","","","","","","","","","","","","",""
"image-keyboard-response","31","132105","0.0-2.0-6.0-0.10","205.80000019073486","","","stimuli/Set_1_rs/103a.jpg","67","","indoor","SL","","","","","","","","","","","","","",""
"image-keyboard-response","32","134607","0.0-2.0-6.0-0.11","1048.5","","","stimuli/Set_1_rs/086a.jpg","67","","indoor","SR","","","","","","","","","","","","","",""
"image-keyboard-response","33","137110","0.0-2.0-6.0-0.12","1538.2000002861023","","","stimuli/Set_1_rs/099a.jpg","67","","indoor","SL","","","","","","","","","","","","","",""
"image-keyboard-response","34","139611","0.0-2.0-6.0-0.13","null","","","stimuli/Set_1_rs/178a.jpg","null","","null","SL","","","","","","","","","","","","","",""
"image-keyboard-response","35","142113","0.0-2.0-6.0-0.14","1029.9000000953674","","","stimuli/Set_1_rs/134a.jpg","67","","indoor","SL","","","","","","","","","","","","","",""
"image-keyboard-response","36","144614","0.0-2.0-6.0-0.15","1184.4000000953674","","","stimuli/Set_1_rs/156a.jpg","67","","indoor","SL","","","","","","","","","","","","","",""
"image-keyboard-response","37","147116","0.0-2.0-6.0-0.16","1371.3000001907349","","","stimuli/Set_1_rs/054a.jpg","77","","outdoor","SR","","","","","","","","","","","","","",""
"image-keyboard-response","38","149619","0.0-2.0-6.0-0.17","1508.3999996185303","","","stimuli/Set_1_rs/092a.jpg","67","","indoor","SL","","","","","","","","","","","","","",""
"image-keyboard-response","39","152121","0.0-2.0-6.0-0.18","1614.3000001907349","","","stimuli/Set_1_rs/031a.jpg","77","","outdoor","SL","","","","","","","","","","","","","",""
"image-keyboard-response","40","154623","0.0-2.0-6.0-0.19","1192.5999999046326","","","stimuli/Set_1_rs/013a.jpg","67","","indoor","SL","","","","","","","","","","","","","",""
"image-keyboard-response","41","157125","0.0-2.0-6.0-0.20","961.6999998092651","","","stimuli/Set_1_rs/075a.jpg","67","","indoor","SL","","","","","","","","","","","","","",""
"image-keyboard-response","42","159627","0.0-2.0-6.0-0.21","1675.5999999046326","","","stimuli/Set_1_rs/150a.jpg","67","","indoor","SR","","","","","","","","","","","","","",""
"image-keyboard-response","43","162129","0.0-2.0-6.0-0.22","1029.5999999046326","","","stimuli/Set_1_rs/094a.jpg","67","","indoor","SL","","","","","","","","","","","","","",""
"image-keyboard-response","44","164630","0.0-2.0-6.0-0.23","1024.1999998092651","","","stimuli/Set_1_rs/090a.jpg","77","","outdoor","SL","","","","","","","","","","","","","",""
"image-keyboard-response","45","167132","0.0-2.0-6.0-0.24","986.7000002861023","","","stimuli/Set_1_rs/192a.jpg","67","","indoor","SR","","","","","","","","","","","","","",""
"image-keyboard-response","46","169635","0.0-2.0-6.0-0.25","1668.3000001907349","","","stimuli/Set_1_rs/116a.jpg","67","","indoor","SL","","","","","","","","","","","","","",""
"image-keyboard-response","47","172137","0.0-2.0-6.0-0.26","894.0999999046326","","","stimuli/Set_1_rs/044a.jpg","67","","indoor","SR","","","","","","","","","","","","","",""
"image-keyboard-response","48","174639","0.0-2.0-6.0-0.27","1368.2000002861023","","","stimuli/Set_1_rs/114a.jpg","67","","indoor","SL","","","","","","","","","","","","","",""
"image-keyboard-response","49","177141","0.0-2.0-6.0-0.28","1073.5999999046326","","","stimuli/Set_1_rs/112a.jpg","67","","indoor","SR","","","","","","","","","","","","","",""
"image-keyboard-response","50","179644","0.0-2.0-6.0-0.29","938.9000000953674","","","stimuli/Set_1_rs/052a.jpg","67","","indoor","SL","","","","","","","","","","","","","",""
"image-keyboard-response","51","182147","0.0-2.0-6.0-0.30","1716.2999997138977","","","stimuli/Set_1_rs/058a.jpg","67","","indoor","SR","","","","","","","","","","","","","",""
"image-keyboard-response","52","184649","0.0-2.0-6.0-0.31","1966.2000002861023","","","stimuli/Set_1_rs/023a.jpg","77","","outdoor","SL","","","","","","","","","","","","","",""
"image-keyboard-response","53","187151","0.0-2.0-6.0-0.32","2007.5","","","stimuli/Set_1_rs/030a.jpg","67","","indoor","SR","","","","","","","","","","","","","",""
"image-keyboard-response","54","189654","0.0-2.0-6.0-0.33","1440.4000000953674","","","stimuli/Set_1_rs/091a.jpg","77","","outdoor","SR","","","","","","","","","","","","","",""
"image-keyboard-response","55","192155","0.0-2.0-6.0-0.34","1179.0999999046326","","","stimuli/Set_1_rs/147a.jpg","67","","indoor","SR","","","","","","","","","","","","","",""
"image-keyboard-response","56","194657","0.0-2.0-6.0-0.35","1252.8999996185303","","","stimuli/Set_1_rs/063a.jpg","67","","indoor","SR","","","","","","","","","","","","","",""
"image-keyboard-response","57","197160","0.0-2.0-6.0-0.36","1294.6000003814697","","","stimuli/Set_1_rs/040a.jpg","77","","outdoor","SR","","","","","","","","","","","","","",""
"image-keyboard-response","58","199663","0.0-2.0-6.0-0.37","1350.5","","","stimuli/Set_1_rs/038a.jpg","77","","outdoor","SR","","","","","","","","","","","","","",""
"image-keyboard-response","59","202165","0.0-2.0-6.0-0.38","1536.5999999046326","","","stimuli/Set_1_rs/100a.jpg","67","","indoor","SL","","","","","","","","","","","","","",""
"image-keyboard-response","60","204668","0.0-2.0-6.0-0.39","1354.3000001907349","","","stimuli/Set_1_rs/109a.jpg","67","","indoor","SR","","","","","","","","","","","","","",""
"image-keyboard-response","61","207170","0.0-2.0-6.0-0.40","1123.8000001907349","","","stimuli/Set_1_rs/191a.jpg","67","","indoor","SR","","","","","","","","","","","","","",""
"image-keyboard-response","62","209673","0.0-2.0-6.0-0.41","1068.6999998092651","","","stimuli/Set_1_rs/061a.jpg","67","","indoor","SL","","","","","","","","","","","","","",""
"image-keyboard-response","63","212175","0.0-2.0-6.0-0.42","1430.3000001907349","","","stimuli/Set_1_rs/162a.jpg","67","","indoor","SR","","","","","","","","","","","","","",""
"image-keyboard-response","64","214677","0.0-2.0-6.0-0.43","912.5","","","stimuli/Set_1_rs/046a.jpg","67","","indoor","SR","","","","","","","","","","","","","",""
"image-keyboard-response","65","217179","0.0-2.0-6.0-0.44","922.1000003814697","","","stimuli/Set_1_rs/155a.jpg","77","","outdoor","SL","","","","","","","","","","","","","",""
"image-keyboard-response","66","219682","0.0-2.0-6.0-0.45","1236.4000000953674","","","stimuli/Set_1_rs/010a.jpg","67","","indoor","SR","","","","","","","","","","","","","",""
"image-keyboard-response","67","222184","0.0-2.0-6.0-0.46","1181.4000000953674","","","stimuli/Set_1_rs/142a.jpg","67","","indoor","SR","","","","","","","","","","","","","",""
"image-keyboard-response","68","224685","0.0-2.0-6.0-0.47","1752","","","stimuli/Set_1_rs/045a.jpg","67","","indoor","SL","","","","","","","","","","","","","",""
"image-keyboard-response","69","227187","0.0-2.0-6.0-0.48","754.2999997138977","","","stimuli/Set_1_rs/070a.jpg","67","","indoor","SR","","","","","","","","","","","","","",""
"image-keyboard-response","70","229690","0.0-2.0-6.0-0.49","1434.9000000953674","","","stimuli/Set_1_rs/022a.jpg","67","","indoor","SL","","","","","","","","","","","","","",""
"image-keyboard-response","71","232192","0.0-2.0-6.0-0.50","1509","","","stimuli/Set_1_rs/021a.jpg","67","","indoor","SR","","","","","","","","","","","","","",""
"image-keyboard-response","72","234694","0.0-2.0-6.0-0.51","1471.0999999046326","","","stimuli/Set_1_rs/098a.jpg","67","","indoor","SL","","","","","","","","","","","","","",""
"image-keyboard-response","73","237196","0.0-2.0-6.0-0.52","953.2999997138977","","","stimuli/Set_1_rs/008a.jpg","67","","indoor","SL","","","","","","","","","","","","","",""
"image-keyboard-response","74","239699","0.0-2.0-6.0-0.53","1314.7999997138977","","","stimuli/Set_1_rs/012a.jpg","67","","indoor","SL","","","","","","","","","","","","","",""
"image-keyboard-response","75","242200","0.0-2.0-6.0-0.54","924.8999996185303","","","stimuli/Set_1_rs/153a.jpg","67","","indoor","SR","","","","","","","","","","","","","",""
"image-keyboard-response","76","244701","0.0-2.0-6.0-0.55","1319.5","","","stimuli/Set_1_rs/068a.jpg","67","","indoor","SL","","","","","","","","","","","","","",""
"image-keyboard-response","77","247203","0.0-2.0-6.0-0.56","882","","","stimuli/Set_1_rs/140a.jpg","67","","indoor","SL","","","","","","","","","","","","","",""
"image-keyboard-response","78","249706","0.0-2.0-6.0-0.57","1515.8000001907349","","","stimuli/Set_1_rs/029a.jpg","67","","indoor","SR","","","","","","","","","","","","","",""
"image-keyboard-response","79","252208","0.0-2.0-6.0-0.58","1493.5999999046326","","","stimuli/Set_1_rs/049a.jpg","77","","outdoor","SR","","","","","","","","","","","","","",""
"image-keyboard-response","80","254710","0.0-2.0-6.0-0.59","943.5999999046326","","","stimuli/Set_1_rs/180a.jpg","67","","indoor","SR","","","","","","","","","","","","","",""
"image-keyboard-response","81","257212","0.0-2.0-6.0-0.60","1241.9000000953674","","","stimuli/Set_1_rs/033a.jpg","67","","indoor","SL","","","","","","","","","","","","","",""
"image-keyboard-response","82","259715","0.0-2.0-6.0-0.61","1747.3000001907349","","","stimuli/Set_1_rs/119a.jpg","67","","indoor","SL","","","","","","","","","","","","","",""
"image-keyboard-response","83","262217","0.0-2.0-6.0-0.62","1309.3000001907349","","","stimuli/Set_1_rs/118a.jpg","67","","indoor","SR","","","","","","","","","","","","","",""
"image-keyboard-response","84","264719","0.0-2.0-6.0-0.63","1271.5999999046326","","","stimuli/Set_1_rs/107a.jpg","67","","indoor","SR","","","","","","","","","","","","","",""
"html-keyboard-response","85","326848","0.0-2.0-7.0","62129.300000190735","","","<p>Vége a feladat első részének. Tartson egy pár perces szünetet.</p>","32","","","","","","","","","","","","","","","","",""
"html-keyboard-response","86","367888","0.0-2.0-8.0-0.0","41038","","","<p>A következőkben ismét tárgyak jelennek majd meg a képernyőn, egymás után.<br>Az Ön feladata eldönteni, látta-e már ezeket a tárgyakat a vizsgálat első felében.</p>		        			<p>Amennyiben pontosan ugyanezt a tárgyat látta (a tárgy <i>régi</i>), nyomja le a <b>C</b> billentyűt.</p>		        			<p>Amennyiben hasonló tárgyat látott (a tárgy <i>hasonló</i>), nyomja le a <b>B</b> billentyűt.</p>		        			<p>Amennyiben nem látta ezt a tárgyat az első részben (a tárgy <i>új</i>), nyomja le az <b>M</b> billentyűt.</p>","32","","","","","","","","","","","","","","","","",""
"html-keyboard-response","87","369889","0.0-2.0-8.0-1.0","null","","","<p>Kezdődik a gyakorlás...</p>","null","","","","","","","","","","","","","","","","",""
"image-keyboard-response","88","373893","0.0-2.0-9.0-0.0","null","","","stimuli/Set_2_rs/049b.jpg","null","","","TL","l","false","null","","","","","","","","","","",""
"html-keyboard-response","89","397600","0.0-2.0-9.0-1.0","23704.400000095367","","","<p>A helyes válasz: Hasonló.</p><p>Nem adott választ.</p>","32","","","","","","","","","","","","","","","","",""
"image-keyboard-response","90","401602","0.0-2.0-9.0-0.1","2461.5","","","stimuli/Set_2_rs/018b.jpg","66","","","TF","n","false","s","","","","","","","","","","",""
"html-keyboard-response","91","409471","0.0-2.0-9.0-1.1","7868","","","<p>A helyes válasz: Új.</p><p>Az Ön válasza: Hasonló.</p>","32","","","","","","","","","","","","","","","","",""
"image-keyboard-response","92","413474","0.0-2.0-9.0-0.2","2685.5999999046326","","","stimuli/Set_2_rs/028a.jpg","67","","","TR","o","true","o","","","","","","","","","","",""
"html-keyboard-response","93","415695","0.0-2.0-9.0-1.2","2219.5","","","<p>A helyes válasz: Régi.</p><p>Az Ön válasza: Régi.</p>","32","","","","","","","","","","","","","","","","",""
"image-keyboard-response","94","419698","0.0-2.0-9.0-0.3","1390","","","stimuli/Set_2_rs/137a.jpg","67","","","TR","o","true","o","","","","","","","","","","",""
"html-keyboard-response","95","422543","0.0-2.0-9.0-1.3","2843.7999997138977","","","<p>A helyes válasz: Régi.</p><p>Az Ön válasza: Régi.</p>","32","","","","","","","","","","","","","","","","",""
"image-keyboard-response","96","426546","0.0-2.0-9.0-0.4","1070","","","stimuli/Set_2_rs/135b.jpg","67","","","TL","l","false","o","","","","","","","","","","",""
"html-keyboard-response","97","431423","0.0-2.0-9.0-1.4","4875.900000095367","","","<p>A helyes válasz: Hasonló.</p><p>Az Ön válasza: Régi.</p>","32","","","","","","","","","","","","","","","","",""
"image-keyboard-response","98","435426","0.0-2.0-9.0-0.5","2590","","","stimuli/Set_2_rs/019a.jpg","77","","","TF","n","true","n","","","","","","","","","","",""
"html-keyboard-response","99","437439","0.0-2.0-9.0-1.5","2011.5999999046326","","","<p>A helyes válasz: Új.</p><p>Az Ön válasza: Új.</p>","32","","","","","","","","","","","","","","","","",""
"html-keyboard-response","100","442639","0.0-2.0-10.0-0.0","5199.10000038147","","","<p>Ez volt a gyakorlás. A feladat következik. A feladat alatt már nem kap visszajelzést.</p>","32","","","","","","","","","","","","","","","","",""
"html-keyboard-response","101","444640","0.0-2.0-10.0-1.0","null","","","<p>Kezdődik a feladat...</p>","null","","","","","","","","","","","","","","","","",""
"image-keyboard-response","102","449143","0.0-2.0-11.0-0.0","4060.0999999046326","","","stimuli/Set_1_rs/181a.jpg","66","","","TF","n","false","s","","","","","","","","","","",""
"image-keyboard-response","103","453646","0.0-2.0-11.0-0.1","1461","","","stimuli/Set_1_rs/152a.jpg","77","","","TF","n","true","n","","","","","","","","","","",""
"image-keyboard-response","104","458148","0.0-2.0-11.0-0.2","1870.5","","","stimuli/Set_1_rs/090b.jpg","77","","","TL","s","false","n","","","","","","","","","","",""
"image-keyboard-response","105","462652","0.0-2.0-11.0-0.3","1271.7999997138977","","","stimuli/Set_1_rs/126a.jpg","77","","","TF","n","true","n","","","","","","","","","","",""
"image-keyboard-response","106","467155","0.0-2.0-11.0-0.4","3296.199999809265","","","stimuli/Set_1_rs/068b.jpg","66","","","TL","s","true","s","","","","","","","","","","",""
"image-keyboard-response","107","471658","0.0-2.0-11.0-0.5","2105.300000190735","","","stimuli/Set_1_rs/054a.jpg","67","","","TR","o","true","o","","","","","","","","","","",""
"image-keyboard-response","108","476162","0.0-2.0-11.0-0.6","1490.1999998092651","","","stimuli/Set_1_rs/162a.jpg","67","","","TR","o","true","o","","","","","","","","","","",""
"image-keyboard-response","109","480665","0.0-2.0-11.0-0.7","3194","","","stimuli/Set_1_rs/019a.jpg","77","","","TF","n","true","n","","","","","","","","","","",""
"image-keyboard-response","110","485167","0.0-2.0-11.0-0.8","2211.2000002861023","","","stimuli/Set_1_rs/119b.jpg","67","","","TL","s","false","o","","","","","","","","","","",""
"image-keyboard-response","111","489670","0.0-2.0-11.0-0.9","1436.5999999046326","","","stimuli/Set_1_rs/052b.jpg","67","","","TL","s","false","o","","","","","","","","","","",""
"image-keyboard-response","112","494173","0.0-2.0-11.0-0.10","1557.6999998092651","","","stimuli/Set_1_rs/135a.jpg","77","","","TF","n","true","n","","","","","","","","","","",""
"image-keyboard-response","113","498676","0.0-2.0-11.0-0.11","1518.9000000953674","","","stimuli/Set_1_rs/004a.jpg","77","","","TF","n","true","n","","","","","","","","","","",""
"image-keyboard-response","114","503179","0.0-2.0-11.0-0.12","1304.3000001907349","","","stimuli/Set_1_rs/072a.jpg","77","","","TF","n","true","n","","","","","","","","","","",""
"image-keyboard-response","115","507681","0.0-2.0-11.0-0.13","1489.4000000953674","","","stimuli/Set_1_rs/028a.jpg","77","","","TF","n","true","n","","","","","","","","","","",""
"image-keyboard-response","116","512184","0.0-2.0-11.0-0.14","2426.8999996185303","","","stimuli/Set_1_rs/091a.jpg","66","","","TR","o","false","s","","","","","","","","","","",""
"image-keyboard-response","117","516687","0.0-2.0-11.0-0.15","1380","","","stimuli/Set_1_rs/108a.jpg","77","","","TF","n","true","n","","","","","","","","","","",""
"image-keyboard-response","118","521191","0.0-2.0-11.0-0.16","1884.5","","","stimuli/Set_1_rs/146a.jpg","66","","","TF","n","false","s","","","","","","","","","","",""
"image-keyboard-response","119","525694","0.0-2.0-11.0-0.17","2245.0999999046326","","","stimuli/Set_1_rs/013b.jpg","66","","","TL","s","true","s","","","","","","","","","","",""
"image-keyboard-response","120","530197","0.0-2.0-11.0-0.18","1597.2000002861023","","","stimuli/Set_1_rs/141a.jpg","77","","","TF","n","true","n","","","","","","","","","","",""
"image-keyboard-response","121","534700","0.0-2.0-11.0-0.19","1366.3000001907349","","","stimuli/Set_1_rs/156b.jpg","67","","","TL","s","false","o","","","","","","","","","","",""
"image-keyboard-response","122","539203","0.0-2.0-11.0-0.20","2480","","","stimuli/Set_1_rs/024a.jpg","66","","","TR","o","false","s","","","","","","","","","","",""
"image-keyboard-response","123","543706","0.0-2.0-11.0-0.21","1768.5999999046326","","","stimuli/Set_1_rs/046a.jpg","67","","","TR","o","true","o","","","","","","","","","","",""
"image-keyboard-response","124","548209","0.0-2.0-11.0-0.22","1201.2999997138977","","","stimuli/Set_1_rs/100b.jpg","67","","","TL","s","false","o","","","","","","","","","","",""
"image-keyboard-response","125","552712","0.0-2.0-11.0-0.23","1355.0999999046326","","","stimuli/Set_1_rs/080a.jpg","77","","","TF","n","true","n","","","","","","","","","","",""
"image-keyboard-response","126","557215","0.0-2.0-11.0-0.24","1587.6999998092651","","","stimuli/Set_1_rs/094b.jpg","77","","","TL","s","false","n","","","","","","","","","","",""
"image-keyboard-response","127","561718","0.0-2.0-11.0-0.25","1052.6999998092651","","","stimuli/Set_1_rs/190a.jpg","77","","","TF","n","true","n","","","","","","","","","","",""
"image-keyboard-response","128","566221","0.0-2.0-11.0-0.26","1829.5999999046326","","","stimuli/Set_1_rs/137a.jpg","67","","","TR","o","true","o","","","","","","","","","","",""
"image-keyboard-response","129","570723","0.0-2.0-11.0-0.27","1150.5","","","stimuli/Set_1_rs/180a.jpg","67","","","TR","o","true","o","","","","","","","","","","",""
"image-keyboard-response","130","575226","0.0-2.0-11.0-0.28","3432.2000002861023","","","stimuli/Set_1_rs/134b.jpg","66","","","TL","s","true","s","","","","","","","","","","",""
"image-keyboard-response","131","579729","0.0-2.0-11.0-0.29","1249.5","","","stimuli/Set_1_rs/088a.jpg","77","","","TF","n","true","n","","","","","","","","","","",""
"image-keyboard-response","132","584233","0.0-2.0-11.0-0.30","1146.2999997138977","","","stimuli/Set_1_rs/165a.jpg","77","","","TF","n","true","n","","","","","","","","","","",""
"image-keyboard-response","133","588736","0.0-2.0-11.0-0.31","2193.5","","","stimuli/Set_1_rs/075b.jpg","66","","","TL","s","true","s","","","","","","","","","","",""
"image-keyboard-response","134","593239","0.0-2.0-11.0-0.32","1259","","","stimuli/Set_1_rs/191a.jpg","67","","","TR","o","true","o","","","","","","","","","","",""
"image-keyboard-response","135","597742","0.0-2.0-11.0-0.33","1284.1999998092651","","","stimuli/Set_1_rs/112a.jpg","67","","","TR","o","true","o","","","","","","","","","","",""
"image-keyboard-response","136","602244","0.0-2.0-11.0-0.34","1229","","","stimuli/Set_1_rs/171a.jpg","77","","","TF","n","true","n","","","","","","","","","","",""
"image-keyboard-response","137","606747","0.0-2.0-11.0-0.35","1318.5","","","stimuli/Set_1_rs/021a.jpg","67","","","TR","o","true","o","","","","","","","","","","",""
"image-keyboard-response","138","611250","0.0-2.0-11.0-0.36","1728.0999999046326","","","stimuli/Set_1_rs/157a.jpg","66","","","TR","o","false","s","","","","","","","","","","",""
"image-keyboard-response","139","615753","0.0-2.0-11.0-0.37","1433","","","stimuli/Set_1_rs/059b.jpg","77","","","TL","s","false","n","","","","","","","","","","",""
"image-keyboard-response","140","620255","0.0-2.0-11.0-0.38","3441.9000000953674","","","stimuli/Set_1_rs/153a.jpg","67","","","TR","o","true","o","","","","","","","","","","",""
"image-keyboard-response","141","624758","0.0-2.0-11.0-0.39","3147.5","","","stimuli/Set_1_rs/002a.jpg","77","","","TF","n","true","n","","","","","","","","","","",""
"image-keyboard-response","142","629261","0.0-2.0-11.0-0.40","1124.5999999046326","","","stimuli/Set_1_rs/041a.jpg","77","","","TF","n","true","n","","","","","","","","","","",""
"image-keyboard-response","143","633764","0.0-2.0-11.0-0.41","1629","","","stimuli/Set_1_rs/012b.jpg","67","","","TL","s","false","o","","","","","","","","","","",""
"image-keyboard-response","144","638267","0.0-2.0-11.0-0.42","2023","","","stimuli/Set_1_rs/083b.jpg","67","","","TL","s","false","o","","","","","","","","","","",""
"image-keyboard-response","145","642769","0.0-2.0-11.0-0.43","959.5999999046326","","","stimuli/Set_1_rs/051a.jpg","77","","","TF","n","true","n","","","","","","","","","","",""
"image-keyboard-response","146","647273","0.0-2.0-11.0-0.44","1001.2999997138977","","","stimuli/Set_1_rs/168a.jpg","77","","","TF","n","true","n","","","","","","","","","","",""
"image-keyboard-response","147","651775","0.0-2.0-11.0-0.45","2114","","","stimuli/Set_1_rs/155b.jpg","66","","","TL","s","true","s","","","","","","","","","","",""
"image-keyboard-response","148","656278","0.0-2.0-11.0-0.46","3083.4000000953674","","","stimuli/Set_1_rs/045b.jpg","66","","","TL","s","true","s","","","","","","","","","","",""
"image-keyboard-response","149","660781","0.0-2.0-11.0-0.47","1764.5","","","stimuli/Set_1_rs/031b.jpg","77","","","TL","s","false","n","","","","","","","","","","",""
"image-keyboard-response","150","665283","0.0-2.0-11.0-0.48","1677.9000000953674","","","stimuli/Set_1_rs/136a.jpg","67","","","TR","o","true","o","","","","","","","","","","",""
"image-keyboard-response","151","669786","0.0-2.0-11.0-0.49","1239.5","","","stimuli/Set_1_rs/053a.jpg","77","","","TF","n","true","n","","","","","","","","","","",""
"image-keyboard-response","152","674289","0.0-2.0-11.0-0.50","2240.2999997138977","","","stimuli/Set_1_rs/061b.jpg","67","","","TL","s","false","o","","","","","","","","","","",""
"image-keyboard-response","153","678792","0.0-2.0-11.0-0.51","1049.2000002861023","","","stimuli/Set_1_rs/062a.jpg","77","","","TF","n","true","n","","","","","","","","","","",""
"image-keyboard-response","154","683295","0.0-2.0-11.0-0.52","2034","","","stimuli/Set_1_rs/009a.jpg","77","","","TR","o","false","n","","","","","","","","","","",""
"image-keyboard-response","155","687798","0.0-2.0-11.0-0.53","1722.6999998092651","","","stimuli/Set_1_rs/099b.jpg","67","","","TL","s","false","o","","","","","","","","","","",""
"image-keyboard-response","156","692301","0.0-2.0-11.0-0.54","1299.7999997138977","","","stimuli/Set_1_rs/030a.jpg","67","","","TR","o","true","o","","","","","","","","","","",""
"image-keyboard-response","157","696804","0.0-2.0-11.0-0.55","1100.8000001907349","","","stimuli/Set_1_rs/029a.jpg","67","","","TR","o","true","o","","","","","","","","","","",""
"image-keyboard-response","158","701307","0.0-2.0-11.0-0.56","3221.5999999046326","","","stimuli/Set_1_rs/140b.jpg","66","","","TL","s","true","s","","","","","","","","","","",""
"image-keyboard-response","159","705810","0.0-2.0-11.0-0.57","1422.7000002861023","","","stimuli/Set_1_rs/182a.jpg","77","","","TF","n","true","n","","","","","","","","","","",""
"image-keyboard-response","160","710313","0.0-2.0-11.0-0.58","2999.6000003814697","","","stimuli/Set_1_rs/151a.jpg","77","","","TF","n","true","n","","","","","","","","","","",""
"image-keyboard-response","161","714815","0.0-2.0-11.0-0.59","1728.8000001907349","","","stimuli/Set_1_rs/142a.jpg","66","","","TR","o","false","s","","","","","","","","","","",""
"image-keyboard-response","162","719318","0.0-2.0-11.0-0.60","1706.3999996185303","","","stimuli/Set_1_rs/070a.jpg","67","","","TR","o","true","o","","","","","","","","","","",""
"image-keyboard-response","163","723821","0.0-2.0-11.0-0.61","1043.5","","","stimuli/Set_1_rs/121a.jpg","77","","","TF","n","true","n","","","","","","","","","","",""
"image-keyboard-response","164","728324","0.0-2.0-11.0-0.62","1469.0999999046326","","","stimuli/Set_1_rs/008b.jpg","66","","","TL","s","true","s","","","","","","","","","","",""
"image-keyboard-response","165","732827","0.0-2.0-11.0-0.63","1958.0999999046326","","","stimuli/Set_1_rs/092b.jpg","66","","","TL","s","true","s","","","","","","","","","","",""
"image-keyboard-response","166","737330","0.0-2.0-11.0-0.64","1982.4000000953674","","","stimuli/Set_1_rs/192a.jpg","67","","","TR","o","true","o","","","","","","","","","","",""
"image-keyboard-response","167","741833","0.0-2.0-11.0-0.65","1943.6999998092651","","","stimuli/Set_1_rs/147a.jpg","77","","","TR","o","false","n","","","","","","","","","","",""
"image-keyboard-response","168","746335","0.0-2.0-11.0-0.66","1216.3000001907349","","","stimuli/Set_1_rs/032a.jpg","77","","","TF","n","true","n","","","","","","","","","","",""
"image-keyboard-response","169","750839","0.0-2.0-11.0-0.67","1162","","","stimuli/Set_1_rs/128b.jpg","67","","","TL","s","false","o","","","","","","","","","","",""
"image-keyboard-response","170","755341","0.0-2.0-11.0-0.68","1443","","","stimuli/Set_1_rs/186a.jpg","77","","","TF","n","true","n","","","","","","","","","","",""
"image-keyboard-response","171","759843","0.0-2.0-11.0-0.69","1740.5","","","stimuli/Set_1_rs/109a.jpg","67","","","TR","o","true","o","","","","","","","","","","",""
"image-keyboard-response","172","764346","0.0-2.0-11.0-0.70","1781.8999996185303","","","stimuli/Set_1_rs/160a.jpg","77","","","TF","n","true","n","","","","","","","","","","",""
"image-keyboard-response","173","768849","0.0-2.0-11.0-0.71","1887.2999997138977","","","stimuli/Set_1_rs/086a.jpg","77","","","TR","o","false","n","","","","","","","","","","",""
"image-keyboard-response","174","773352","0.0-2.0-11.0-0.72","2472","","","stimuli/Set_1_rs/023b.jpg","67","","","TL","s","false","o","","","","","","","","","","",""
"image-keyboard-response","175","777855","0.0-2.0-11.0-0.73","1041","","","stimuli/Set_1_rs/114b.jpg","67","","","TL","s","false","o","","","","","","","","","","",""
"image-keyboard-response","176","782358","0.0-2.0-11.0-0.74","2361.7999997138977","","","stimuli/Set_1_rs/033b.jpg","66","","","TL","s","true","s","","","","","","","","","","",""
"image-keyboard-response","177","786861","0.0-2.0-11.0-0.75","1202.5","","","stimuli/Set_1_rs/010a.jpg","67","","","TR","o","true","o","","","","","","","","","","",""
"image-keyboard-response","178","791363","0.0-2.0-11.0-0.76","3435.800000190735","","","stimuli/Set_1_rs/150a.jpg","67","","","TR","o","true","o","","","","","","","","","","",""
"image-keyboard-response","179","795866","0.0-2.0-11.0-0.77","1445.5","","","stimuli/Set_1_rs/038a.jpg","67","","","TR","o","true","o","","","","","","","","","","",""
"image-keyboard-response","180","800369","0.0-2.0-11.0-0.78","1326.3000001907349","","","stimuli/Set_1_rs/022b.jpg","67","","","TL","s","false","o","","","","","","","","","","",""
"image-keyboard-response","181","804872","0.0-2.0-11.0-0.79","999.9000000953674","","","stimuli/Set_1_rs/018a.jpg","77","","","TF","n","true","n","","","","","","","","","","",""
"image-keyboard-response","182","809376","0.0-2.0-11.0-0.80","864.5","","","stimuli/Set_1_rs/081a.jpg","77","","","TF","n","true","n","","","","","","","","","","",""
"image-keyboard-response","183","813878","0.0-2.0-11.0-0.81","1480.5","","","stimuli/Set_1_rs/107a.jpg","67","","","TR","o","true","o","","","","","","","","","","",""
"image-keyboard-response","184","818381","0.0-2.0-11.0-0.82","1474.1999998092651","","","stimuli/Set_1_rs/101b.jpg","67","","","TL","s","false","o","","","","","","","","","","",""
"image-keyboard-response","185","822884","0.0-2.0-11.0-0.83","2763.199999809265","","","stimuli/Set_1_rs/178b.jpg","67","","","TL","s","false","o","","","","","","","","","","",""
"image-keyboard-response","186","827386","0.0-2.0-11.0-0.84","2164.5","","","stimuli/Set_1_rs/103b.jpg","66","","","TL","s","true","s","","","","","","","","","","",""
"image-keyboard-response","187","831889","0.0-2.0-11.0-0.85","1406.0999999046326","","","stimuli/Set_1_rs/116b.jpg","77","","","TL","s","false","n","","","","","","","","","","",""
"image-keyboard-response","188","836392","0.0-2.0-11.0-0.86","1094.9000000953674","","","stimuli/Set_1_rs/122a.jpg","77","","","TF","n","true","n","","","","","","","","","","",""
"image-keyboard-response","189","840895","0.0-2.0-11.0-0.87","1824.3000001907349","","","stimuli/Set_1_rs/044a.jpg","66","","","TR","o","false","s","","","","","","","","","","",""
"image-keyboard-response","190","845398","0.0-2.0-11.0-0.88","2073.0999999046326","","","stimuli/Set_1_rs/049a.jpg","67","","","TR","o","true","o","","","","","","","","","","",""
"image-keyboard-response","191","849901","0.0-2.0-11.0-0.89","1265.9000000953674","","","stimuli/Set_1_rs/118a.jpg","77","","","TR","o","false","n","","","","","","","","","","",""
"image-keyboard-response","192","854405","0.0-2.0-11.0-0.90","1867.0999999046326","","","stimuli/Set_1_rs/040a.jpg","67","","","TR","o","true","o","","","","","","","","","","",""
"image-keyboard-response","193","858907","0.0-2.0-11.0-0.91","1987.5","","","stimuli/Set_1_rs/011b.jpg","67","","","TL","s","false","o","","","","","","","","","","",""
"image-keyboard-response","194","863410","0.0-2.0-11.0-0.92","1212.6999998092651","","","stimuli/Set_1_rs/087a.jpg","77","","","TF","n","true","n","","","","","","","","","","",""
"image-keyboard-response","195","867913","0.0-2.0-11.0-0.93","1445.7999997138977","","","stimuli/Set_1_rs/063a.jpg","67","","","TR","o","true","o","","","","","","","","","","",""
"image-keyboard-response","196","872416","0.0-2.0-11.0-0.94","2239.199999809265","","","stimuli/Set_1_rs/098b.jpg","66","","","TL","s","true","s","","","","","","","","","","",""
"image-keyboard-response","197","876919","0.0-2.0-11.0-0.95","3016.2000002861023","","","stimuli/Set_1_rs/058a.jpg","67","","","TR","o","true","o","","","","","","","","","","",""
"html-keyboard-response","198","888090","0.0-3.0","11169.599999904633","","","<p>Vége a feladatnak. Köszönjük a részvételt!</p>","32","","","","","","","25","5","4","16","12","5","0","3","31","0.7352941176470589","0.27540106951871657"
