"trial_type","trial_index","time_elapsed","internal_node_id","rt","responses","success","stimulus","key_press","cond","enc_response","condition","correct_response","correct","rec_response","targ_old","targ_sim","targ_new","lure_old","lure_sim","lure_new","foil_old","foil_sim","foil_new","recognition_ratio","ldi"
"pavlovia","0","5","0.0-0.0","","","","","","","","","","","","","","","","","","","","","",""
"survey-multi-choice","1","13182","0.0-1.0","13174.300000011921","{""Q0"":""Igen"",""Q1"":""Igen""}","","","","","","","","","","","","","","","","","","","",""
"survey-text","2","30256","0.0-2.0-0.0","17072.30000001192","{""Q0"":""704497""}","","","","","","","","","","","","","","","","","","","",""
"fullscreen","3","33162","0.0-2.0-1.0","","","true","","","","","","","","","","","","","","","","","","",""
"html-keyboard-response","4","48448","0.0-2.0-2.0","15284.400000035763","","","<p>Üdvözöljük! Ez a feladat két részből áll, és összesen 10-15 percet vesz igénybe.</p>","32","","","","","","","","","","","","","","","","",""
"html-keyboard-response","5","79071","0.0-2.0-3.0-0.0","30621.5","","","<p>Az első részben tárgyakat lát majd a képernyőn, egymás után fognak megjelenni.<br>Az Ön feladata eldönteni, hogy a tárgyak <i>beltéri vagy kültéri</i> tárgyak-e.</p>						   <p>Amennyiben a tárgyat általában beltéren látja, nyomja le a <b>C</b> billentyűt. Amennyiben a tárgyat általában kültéren látja, nyomja le az <b>M</b> billentyűt.</p>						   <p>Ebben a feladatban nincsen mindig egyértelműen jó megoldás. Válaszoljon legjobb tudása szerint. A válaszadásra 2 másodperce lesz.","32","","","","","","","","","","","","","","","","",""
"html-keyboard-response","6","81073","0.0-2.0-3.0-1.0","null","","","<p>Kezdődik a gyakorlás...</p>","null","","","","","","","","","","","","","","","","",""
"image-keyboard-response","7","83077","0.0-2.0-4.0-0.0","null","","","stimuli/Set_2_rs/165b.jpg","null","-","null","","","","","","","","","","","","","","",""
"html-keyboard-response","8","87071","0.0-2.0-4.0-1.0","3491.7999999523163","","","<p>Az Ön válasza:</p><p>Nem adott választ.</p>","32","","","","","","","","","","","","","","","","",""
"image-keyboard-response","9","89073","0.0-2.0-4.0-0.1","null","","","stimuli/Set_2_rs/034a.jpg","null","-","null","","","","","","","","","","","","","","",""
"html-keyboard-response","10","92415","0.0-2.0-4.0-1.1","2839.699999988079","","","<p>Az Ön válasza:</p><p>Nem adott választ.</p>","32","","","","","","","","","","","","","","","","",""
"image-keyboard-response","11","94417","0.0-2.0-4.0-0.2","1550.2999999523163","","","stimuli/Set_2_rs/049a.jpg","77","SL","outdoor","","","","","","","","","","","","","","",""
"html-keyboard-response","12","98703","0.0-2.0-4.0-1.2","3784","","","<p>Az Ön válasza:</p><p>Kültéri.</p>","32","","","","","","","","","","","","","","","","",""
"image-keyboard-response","13","100706","0.0-2.0-4.0-0.3","1726.199999988079","","","stimuli/Set_2_rs/028a.jpg","67","SR","indoor","","","","","","","","","","","","","","",""
"html-keyboard-response","14","103295","0.0-2.0-4.0-1.3","2086.5","","","<p>Az Ön válasza:</p><p>Beltéri.</p>","32","","","","","","","","","","","","","","","","",""
"image-keyboard-response","15","105297","0.0-2.0-4.0-0.4","1486.300000011921","","","stimuli/Set_2_rs/135a.jpg","67","SL","indoor","","","","","","","","","","","","","","",""
"html-keyboard-response","16","106799","0.0-2.0-4.0-1.4","999.5","","","<p>Az Ön válasza:</p><p>Beltéri.</p>","32","","","","","","","","","","","","","","","","",""
"image-keyboard-response","17","108801","0.0-2.0-4.0-0.5","1598.699999988079","","","stimuli/Set_2_rs/137a.jpg","67","SR","indoor","","","","","","","","","","","","","","",""
"html-keyboard-response","18","111023","0.0-2.0-4.0-1.5","1719.699999988079","","","<p>Az Ön válasza:</p><p>Beltéri.</p>","32","","","","","","","","","","","","","","","","",""
"html-keyboard-response","19","133743","0.0-2.0-5.0-0.0","22719.299999952316","","","<p>Ez volt a gyakorlás. A feladat következik. A feladat alatt már nem kap visszajelzést.</p>","32","","","","","","","","","","","","","","","","",""
"html-keyboard-response","20","135744","0.0-2.0-5.0-1.0","null","","","<p>Kezdődik a feladat...</p>","null","","","","","","","","","","","","","","","","",""
"image-keyboard-response","21","138247","0.0-2.0-6.0-0.0","1643.8999999761581","","","stimuli/Set_1_rs/157a.jpg","67","","indoor","SR","","","","","","","","","","","","","",""
"image-keyboard-response","22","140750","0.0-2.0-6.0-0.1","1589.7999999523163","","","stimuli/Set_1_rs/009a.jpg","67","","indoor","SR","","","","","","","","","","","","","",""
"image-keyboard-response","23","143252","0.0-2.0-6.0-0.2","1695.699999988079","","","stimuli/Set_1_rs/059a.jpg","67","","indoor","SL","","","","","","","","","","","","","",""
"image-keyboard-response","24","145754","0.0-2.0-6.0-0.3","1017.9000000357628","","","stimuli/Set_1_rs/024a.jpg","77","","outdoor","SR","","","","","","","","","","","","","",""
"image-keyboard-response","25","148257","0.0-2.0-6.0-0.4","899.2999999523163","","","stimuli/Set_1_rs/101a.jpg","67","","indoor","SL","","","","","","","","","","","","","",""
"image-keyboard-response","26","150758","0.0-2.0-6.0-0.5","1148.699999988079","","","stimuli/Set_1_rs/137a.jpg","77","","outdoor","SR","","","","","","","","","","","","","",""
"image-keyboard-response","27","153260","0.0-2.0-6.0-0.6","1751","","","stimuli/Set_1_rs/011a.jpg","67","","indoor","SL","","","","","","","","","","","","","",""
"image-keyboard-response","28","155762","0.0-2.0-6.0-0.7","1425.199999988079","","","stimuli/Set_1_rs/128a.jpg","67","","indoor","SL","","","","","","","","","","","","","",""
"image-keyboard-response","29","158264","0.0-2.0-6.0-0.8","1562.9000000357628","","","stimuli/Set_1_rs/083a.jpg","67","","indoor","SL","","","","","","","","","","","","","",""
"image-keyboard-response","30","160765","0.0-2.0-6.0-0.9","1285.4000000357628","","","stimuli/Set_1_rs/136a.jpg","67","","indoor","SR","","","","","","","","","","","","","",""
"image-keyboard-response","31","163268","0.0-2.0-6.0-0.10","992.1999999880791","","","stimuli/Set_1_rs/103a.jpg","67","","indoor","SL","","","","","","","","","","","","","",""
"image-keyboard-response","32","165770","0.0-2.0-6.0-0.11","1033.6000000238419","","","stimuli/Set_1_rs/086a.jpg","67","","indoor","SR","","","","","","","","","","","","","",""
"image-keyboard-response","33","168272","0.0-2.0-6.0-0.12","1395","","","stimuli/Set_1_rs/099a.jpg","77","","outdoor","SL","","","","","","","","","","","","","",""
"image-keyboard-response","34","170774","0.0-2.0-6.0-0.13","2221.099999964237","","","stimuli/Set_1_rs/178a.jpg","67","","indoor","SL","","","","","","","","","","","","","",""
"image-keyboard-response","35","173277","0.0-2.0-6.0-0.14","1606.800000011921","","","stimuli/Set_1_rs/134a.jpg","67","","indoor","SL","","","","","","","","","","","","","",""
"image-keyboard-response","36","175779","0.0-2.0-6.0-0.15","1088","","","stimuli/Set_1_rs/156a.jpg","67","","indoor","SL","","","","","","","","","","","","","",""
"image-keyboard-response","37","178282","0.0-2.0-6.0-0.16","1161.8999999761581","","","stimuli/Set_1_rs/054a.jpg","67","","indoor","SR","","","","","","","","","","","","","",""
"image-keyboard-response","38","180785","0.0-2.0-6.0-0.17","1395.5","","","stimuli/Set_1_rs/092a.jpg","77","","outdoor","SL","","","","","","","","","","","","","",""
"image-keyboard-response","39","183287","0.0-2.0-6.0-0.18","1356.5","","","stimuli/Set_1_rs/031a.jpg","67","","indoor","SL","","","","","","","","","","","","","",""
"image-keyboard-response","40","185789","0.0-2.0-6.0-0.19","1141.7000000476837","","","stimuli/Set_1_rs/013a.jpg","67","","indoor","SL","","","","","","","","","","","","","",""
"image-keyboard-response","41","188291","0.0-2.0-6.0-0.20","1247.300000011921","","","stimuli/Set_1_rs/075a.jpg","67","","indoor","SL","","","","","","","","","","","","","",""
"image-keyboard-response","42","190793","0.0-2.0-6.0-0.21","1817.800000011921","","","stimuli/Set_1_rs/150a.jpg","67","","indoor","SR","","","","","","","","","","","","","",""
"image-keyboard-response","43","193295","0.0-2.0-6.0-0.22","979.9000000357628","","","stimuli/Set_1_rs/094a.jpg","67","","indoor","SL","","","","","","","","","","","","","",""
"image-keyboard-response","44","195797","0.0-2.0-6.0-0.23","974.1000000238419","","","stimuli/Set_1_rs/090a.jpg","77","","outdoor","SL","","","","","","","","","","","","","",""
"image-keyboard-response","45","198299","0.0-2.0-6.0-0.24","1175","","","stimuli/Set_1_rs/192a.jpg","67","","indoor","SR","","","","","","","","","","","","","",""
"image-keyboard-response","46","200801","0.0-2.0-6.0-0.25","1105.6000000238419","","","stimuli/Set_1_rs/116a.jpg","67","","indoor","SL","","","","","","","","","","","","","",""
"image-keyboard-response","47","203303","0.0-2.0-6.0-0.26","956.1999999880791","","","stimuli/Set_1_rs/044a.jpg","67","","indoor","SR","","","","","","","","","","","","","",""
"image-keyboard-response","48","205804","0.0-2.0-6.0-0.27","1270.2000000476837","","","stimuli/Set_1_rs/114a.jpg","67","","indoor","SL","","","","","","","","","","","","","",""
"image-keyboard-response","49","208308","0.0-2.0-6.0-0.28","1184.199999988079","","","stimuli/Set_1_rs/112a.jpg","67","","indoor","SR","","","","","","","","","","","","","",""
"image-keyboard-response","50","210809","0.0-2.0-6.0-0.29","937.0999999642372","","","stimuli/Set_1_rs/052a.jpg","67","","indoor","SL","","","","","","","","","","","","","",""
"image-keyboard-response","51","213310","0.0-2.0-6.0-0.30","1443.800000011921","","","stimuli/Set_1_rs/058a.jpg","67","","indoor","SR","","","","","","","","","","","","","",""
"image-keyboard-response","52","215813","0.0-2.0-6.0-0.31","1534.3999999761581","","","stimuli/Set_1_rs/023a.jpg","67","","indoor","SL","","","","","","","","","","","","","",""
"image-keyboard-response","53","218315","0.0-2.0-6.0-0.32","1879.5","","","stimuli/Set_1_rs/030a.jpg","67","","indoor","SR","","","","","","","","","","","","","",""
"image-keyboard-response","54","220817","0.0-2.0-6.0-0.33","1809.300000011921","","","stimuli/Set_1_rs/091a.jpg","67","","indoor","SR","","","","","","","","","","","","","",""
"image-keyboard-response","55","223319","0.0-2.0-6.0-0.34","1595.5999999642372","","","stimuli/Set_1_rs/147a.jpg","67","","indoor","SR","","","","","","","","","","","","","",""
"image-keyboard-response","56","225821","0.0-2.0-6.0-0.35","1029.800000011921","","","stimuli/Set_1_rs/063a.jpg","67","","indoor","SR","","","","","","","","","","","","","",""
"image-keyboard-response","57","228323","0.0-2.0-6.0-0.36","1327.3999999761581","","","stimuli/Set_1_rs/040a.jpg","77","","outdoor","SR","","","","","","","","","","","","","",""
"image-keyboard-response","58","230825","0.0-2.0-6.0-0.37","1049.800000011921","","","stimuli/Set_1_rs/038a.jpg","67","","indoor","SR","","","","","","","","","","","","","",""
"image-keyboard-response","59","233326","0.0-2.0-6.0-0.38","1363.800000011921","","","stimuli/Set_1_rs/100a.jpg","67","","indoor","SL","","","","","","","","","","","","","",""
"image-keyboard-response","60","235828","0.0-2.0-6.0-0.39","1534.5","","","stimuli/Set_1_rs/109a.jpg","67","","indoor","SR","","","","","","","","","","","","","",""
"image-keyboard-response","61","238330","0.0-2.0-6.0-0.40","1176.300000011921","","","stimuli/Set_1_rs/191a.jpg","67","","indoor","SR","","","","","","","","","","","","","",""
"image-keyboard-response","62","240832","0.0-2.0-6.0-0.41","1346.0999999642372","","","stimuli/Set_1_rs/061a.jpg","67","","indoor","SL","","","","","","","","","","","","","",""
"image-keyboard-response","63","243334","0.0-2.0-6.0-0.42","1068.7000000476837","","","stimuli/Set_1_rs/162a.jpg","67","","indoor","SR","","","","","","","","","","","","","",""
"image-keyboard-response","64","245835","0.0-2.0-6.0-0.43","807","","","stimuli/Set_1_rs/046a.jpg","67","","indoor","SR","","","","","","","","","","","","","",""
"image-keyboard-response","65","248337","0.0-2.0-6.0-0.44","1328.5999999642372","","","stimuli/Set_1_rs/155a.jpg","77","","outdoor","SL","","","","","","","","","","","","","",""
"image-keyboard-response","66","250839","0.0-2.0-6.0-0.45","1562.8999999761581","","","stimuli/Set_1_rs/010a.jpg","67","","indoor","SR","","","","","","","","","","","","","",""
"image-keyboard-response","67","253341","0.0-2.0-6.0-0.46","1573.4000000357628","","","stimuli/Set_1_rs/142a.jpg","77","","outdoor","SR","","","","","","","","","","","","","",""
"image-keyboard-response","68","255843","0.0-2.0-6.0-0.47","1679.199999988079","","","stimuli/Set_1_rs/045a.jpg","67","","indoor","SL","","","","","","","","","","","","","",""
"image-keyboard-response","69","258347","0.0-2.0-6.0-0.48","2152.5","","","stimuli/Set_1_rs/070a.jpg","77","","outdoor","SR","","","","","","","","","","","","","",""
"image-keyboard-response","70","260850","0.0-2.0-6.0-0.49","1457.199999988079","","","stimuli/Set_1_rs/022a.jpg","77","","outdoor","SL","","","","","","","","","","","","","",""
"image-keyboard-response","71","263351","0.0-2.0-6.0-0.50","1514.8999999761581","","","stimuli/Set_1_rs/021a.jpg","67","","indoor","SR","","","","","","","","","","","","","",""
"image-keyboard-response","72","265853","0.0-2.0-6.0-0.51","1173.4000000357628","","","stimuli/Set_1_rs/098a.jpg","67","","indoor","SL","","","","","","","","","","","","","",""
"image-keyboard-response","73","268355","0.0-2.0-6.0-0.52","959.0999999642372","","","stimuli/Set_1_rs/008a.jpg","67","","indoor","SL","","","","","","","","","","","","","",""
"image-keyboard-response","74","270857","0.0-2.0-6.0-0.53","1049.300000011921","","","stimuli/Set_1_rs/012a.jpg","67","","indoor","SL","","","","","","","","","","","","","",""
"image-keyboard-response","75","273359","0.0-2.0-6.0-0.54","1203","","","stimuli/Set_1_rs/153a.jpg","67","","indoor","SR","","","","","","","","","","","","","",""
"image-keyboard-response","76","275861","0.0-2.0-6.0-0.55","1165.4000000357628","","","stimuli/Set_1_rs/068a.jpg","67","","indoor","SL","","","","","","","","","","","","","",""
"image-keyboard-response","77","278363","0.0-2.0-6.0-0.56","1094.699999988079","","","stimuli/Set_1_rs/140a.jpg","67","","indoor","SL","","","","","","","","","","","","","",""
"image-keyboard-response","78","280865","0.0-2.0-6.0-0.57","1393.3999999761581","","","stimuli/Set_1_rs/029a.jpg","67","","indoor","SR","","","","","","","","","","","","","",""
"image-keyboard-response","79","283366","0.0-2.0-6.0-0.58","955.5","","","stimuli/Set_1_rs/049a.jpg","77","","outdoor","SR","","","","","","","","","","","","","",""
"image-keyboard-response","80","285869","0.0-2.0-6.0-0.59","774","","","stimuli/Set_1_rs/180a.jpg","67","","indoor","SR","","","","","","","","","","","","","",""
"image-keyboard-response","81","288371","0.0-2.0-6.0-0.60","1071.1000000238419","","","stimuli/Set_1_rs/033a.jpg","67","","indoor","SL","","","","","","","","","","","","","",""
"image-keyboard-response","82","290873","0.0-2.0-6.0-0.61","1785.199999988079","","","stimuli/Set_1_rs/119a.jpg","67","","indoor","SL","","","","","","","","","","","","","",""
"image-keyboard-response","83","293376","0.0-2.0-6.0-0.62","979.5999999642372","","","stimuli/Set_1_rs/118a.jpg","67","","indoor","SR","","","","","","","","","","","","","",""
"image-keyboard-response","84","295879","0.0-2.0-6.0-0.63","1180.3999999761581","","","stimuli/Set_1_rs/107a.jpg","77","","outdoor","SR","","","","","","","","","","","","","",""
"html-keyboard-response","85","358781","0.0-2.0-7.0","62902.09999996424","","","<p>Vége a feladat első részének. Tartson egy pár perces szünetet.</p>","32","","","","","","","","","","","","","","","","",""
"html-keyboard-response","86","392540","0.0-2.0-8.0-0.0","33758.10000002384","","","<p>A következőkben ismét tárgyak jelennek majd meg a képernyőn, egymás után.<br>Az Ön feladata eldönteni, látta-e már ezeket a tárgyakat a vizsgálat első felében.</p>		        			<p>Amennyiben pontosan ugyanezt a tárgyat látta (a tárgy <i>régi</i>), nyomja le a <b>C</b> billentyűt.</p>		        			<p>Amennyiben hasonló tárgyat látott (a tárgy <i>hasonló</i>), nyomja le a <b>B</b> billentyűt.</p>		        			<p>Amennyiben nem látta ezt a tárgyat az első részben (a tárgy <i>új</i>), nyomja le az <b>M</b> billentyűt.</p>","32","","","","","","","","","","","","","","","","",""
"html-keyboard-response","87","394542","0.0-2.0-8.0-1.0","null","","","<p>Kezdődik a gyakorlás...</p>","null","","","","","","","","","","","","","","","","",""
"image-keyboard-response","88","398546","0.0-2.0-9.0-0.0","1531.300000011921","","","stimuli/Set_2_rs/049b.jpg","77","","","TL","l","false","n","","","","","","","","","","",""
"html-keyboard-response","89","405436","0.0-2.0-9.0-1.0","6887.899999976158","","","<p>A helyes válasz: Hasonló.</p><p>Az Ön válasza: Új.</p>","32","","","","","","","","","","","","","","","","",""
"image-keyboard-response","90","409439","0.0-2.0-9.0-0.1","2173.600000023842","","","stimuli/Set_2_rs/018b.jpg","77","","","TF","n","true","n","","","","","","","","","","",""
"html-keyboard-response","91","412732","0.0-2.0-9.0-1.1","3291.100000023842","","","<p>A helyes válasz: Új.</p><p>Az Ön válasza: Új.</p>","32","","","","","","","","","","","","","","","","",""
"image-keyboard-response","92","416735","0.0-2.0-9.0-0.2","1501.7000000476837","","","stimuli/Set_2_rs/028a.jpg","77","","","TR","o","false","n","","","","","","","","","","",""
"html-keyboard-response","93","423853","0.0-2.0-9.0-1.2","7115.600000023842","","","<p>A helyes válasz: Régi.</p><p>Az Ön válasza: Új.</p>","32","","","","","","","","","","","","","","","","",""
"image-keyboard-response","94","427855","0.0-2.0-9.0-0.3","2173.800000011921","","","stimuli/Set_2_rs/137a.jpg","77","","","TR","o","false","n","","","","","","","","","","",""
"html-keyboard-response","95","429340","0.0-2.0-9.0-1.3","1483.7000000476837","","","<p>A helyes válasz: Régi.</p><p>Az Ön válasza: Új.</p>","32","","","","","","","","","","","","","","","","",""
"image-keyboard-response","96","433343","0.0-2.0-9.0-0.4","1982.300000011921","","","stimuli/Set_2_rs/135b.jpg","77","","","TL","l","false","n","","","","","","","","","","",""
"html-keyboard-response","97","441004","0.0-2.0-9.0-1.4","7660.599999964237","","","<p>A helyes válasz: Hasonló.</p><p>Az Ön válasza: Új.</p>","32","","","","","","","","","","","","","","","","",""
"image-keyboard-response","98","445008","0.0-2.0-9.0-0.5","2445.800000011921","","","stimuli/Set_2_rs/019a.jpg","77","","","TF","n","true","n","","","","","","","","","","",""
"html-keyboard-response","99","447996","0.0-2.0-9.0-1.5","2987.2999999523163","","","<p>A helyes válasz: Új.</p><p>Az Ön válasza: Új.</p>","32","","","","","","","","","","","","","","","","",""
"html-keyboard-response","100","466876","0.0-2.0-10.0-0.0","18879.19999998808","","","<p>Ez volt a gyakorlás. A feladat következik. A feladat alatt már nem kap visszajelzést.</p>","32","","","","","","","","","","","","","","","","",""
"html-keyboard-response","101","468878","0.0-2.0-10.0-1.0","null","","","<p>Kezdődik a feladat...</p>","null","","","","","","","","","","","","","","","","",""
"image-keyboard-response","102","473380","0.0-2.0-11.0-0.0","1420.199999988079","","","stimuli/Set_1_rs/181a.jpg","67","","","TF","n","false","o","","","","","","","","","","",""
"image-keyboard-response","103","477883","0.0-2.0-11.0-0.1","1413.0999999642372","","","stimuli/Set_1_rs/152a.jpg","77","","","TF","n","true","n","","","","","","","","","","",""
"image-keyboard-response","104","482386","0.0-2.0-11.0-0.2","2318.5","","","stimuli/Set_1_rs/090b.jpg","77","","","TL","s","false","n","","","","","","","","","","",""
"image-keyboard-response","105","486890","0.0-2.0-11.0-0.3","1095.0999999642372","","","stimuli/Set_1_rs/126a.jpg","77","","","TF","n","true","n","","","","","","","","","","",""
"image-keyboard-response","106","491392","0.0-2.0-11.0-0.4","1055.800000011921","","","stimuli/Set_1_rs/068b.jpg","67","","","TL","s","false","o","","","","","","","","","","",""
"image-keyboard-response","107","495895","0.0-2.0-11.0-0.5","1209.699999988079","","","stimuli/Set_1_rs/054a.jpg","67","","","TR","o","true","o","","","","","","","","","","",""
"image-keyboard-response","108","500398","0.0-2.0-11.0-0.6","1122.800000011921","","","stimuli/Set_1_rs/162a.jpg","67","","","TR","o","true","o","","","","","","","","","","",""
"image-keyboard-response","109","504900","0.0-2.0-11.0-0.7","1340.1000000238419","","","stimuli/Set_1_rs/019a.jpg","77","","","TF","n","true","n","","","","","","","","","","",""
"image-keyboard-response","110","509403","0.0-2.0-11.0-0.8","2949","","","stimuli/Set_1_rs/119b.jpg","66","","","TL","s","true","s","","","","","","","","","","",""
"image-keyboard-response","111","513906","0.0-2.0-11.0-0.9","1230.199999988079","","","stimuli/Set_1_rs/052b.jpg","77","","","TL","s","false","n","","","","","","","","","","",""
"image-keyboard-response","112","518409","0.0-2.0-11.0-0.10","1223.2999999523163","","","stimuli/Set_1_rs/135a.jpg","77","","","TF","n","true","n","","","","","","","","","","",""
"image-keyboard-response","113","522912","0.0-2.0-11.0-0.11","1056.3999999761581","","","stimuli/Set_1_rs/004a.jpg","77","","","TF","n","true","n","","","","","","","","","","",""
"image-keyboard-response","114","527415","0.0-2.0-11.0-0.12","1048.6000000238419","","","stimuli/Set_1_rs/072a.jpg","77","","","TF","n","true","n","","","","","","","","","","",""
"image-keyboard-response","115","531919","0.0-2.0-11.0-0.13","929.6999999880791","","","stimuli/Set_1_rs/028a.jpg","77","","","TF","n","true","n","","","","","","","","","","",""
"image-keyboard-response","116","536422","0.0-2.0-11.0-0.14","906.3999999761581","","","stimuli/Set_1_rs/091a.jpg","67","","","TR","o","true","o","","","","","","","","","","",""
"image-keyboard-response","117","540926","0.0-2.0-11.0-0.15","883","","","stimuli/Set_1_rs/108a.jpg","77","","","TF","n","true","n","","","","","","","","","","",""
"image-keyboard-response","118","545429","0.0-2.0-11.0-0.16","null","","","stimuli/Set_1_rs/146a.jpg","null","","","TF","n","false","null","","","","","","","","","","",""
"image-keyboard-response","119","549932","0.0-2.0-11.0-0.17","1235.9000000357628","","","stimuli/Set_1_rs/013b.jpg","67","","","TL","s","false","o","","","","","","","","","","",""
"image-keyboard-response","120","554435","0.0-2.0-11.0-0.18","1324.5","","","stimuli/Set_1_rs/141a.jpg","77","","","TF","n","true","n","","","","","","","","","","",""
"image-keyboard-response","121","558938","0.0-2.0-11.0-0.19","1013.6000000238419","","","stimuli/Set_1_rs/156b.jpg","67","","","TL","s","false","o","","","","","","","","","","",""
"image-keyboard-response","122","563441","0.0-2.0-11.0-0.20","895.3000000119209","","","stimuli/Set_1_rs/024a.jpg","77","","","TR","o","false","n","","","","","","","","","","",""
"image-keyboard-response","123","567943","0.0-2.0-11.0-0.21","1096.300000011921","","","stimuli/Set_1_rs/046a.jpg","67","","","TR","o","true","o","","","","","","","","","","",""
"image-keyboard-response","124","572447","0.0-2.0-11.0-0.22","null","","","stimuli/Set_1_rs/100b.jpg","null","","","TL","s","false","null","","","","","","","","","","",""
"image-keyboard-response","125","576950","0.0-2.0-11.0-0.23","1273.800000011921","","","stimuli/Set_1_rs/080a.jpg","77","","","TF","n","true","n","","","","","","","","","","",""
"image-keyboard-response","126","581453","0.0-2.0-11.0-0.24","1042.8999999761581","","","stimuli/Set_1_rs/094b.jpg","67","","","TL","s","false","o","","","","","","","","","","",""
"image-keyboard-response","127","585956","0.0-2.0-11.0-0.25","1148.0999999642372","","","stimuli/Set_1_rs/190a.jpg","77","","","TF","n","true","n","","","","","","","","","","",""
"image-keyboard-response","128","590459","0.0-2.0-11.0-0.26","1045.199999988079","","","stimuli/Set_1_rs/137a.jpg","77","","","TR","o","false","n","","","","","","","","","","",""
"image-keyboard-response","129","594962","0.0-2.0-11.0-0.27","1277.800000011921","","","stimuli/Set_1_rs/180a.jpg","67","","","TR","o","true","o","","","","","","","","","","",""
"image-keyboard-response","130","599466","0.0-2.0-11.0-0.28","2598.5","","","stimuli/Set_1_rs/134b.jpg","66","","","TL","s","true","s","","","","","","","","","","",""
"image-keyboard-response","131","603969","0.0-2.0-11.0-0.29","1391.0999999642372","","","stimuli/Set_1_rs/088a.jpg","77","","","TF","n","true","n","","","","","","","","","","",""
"image-keyboard-response","132","608472","0.0-2.0-11.0-0.30","1015.5999999642372","","","stimuli/Set_1_rs/165a.jpg","77","","","TF","n","true","n","","","","","","","","","","",""
"image-keyboard-response","133","612975","0.0-2.0-11.0-0.31","880.6999999880791","","","stimuli/Set_1_rs/075b.jpg","77","","","TL","s","false","n","","","","","","","","","","",""
"image-keyboard-response","134","617479","0.0-2.0-11.0-0.32","1289","","","stimuli/Set_1_rs/191a.jpg","77","","","TR","o","false","n","","","","","","","","","","",""
"image-keyboard-response","135","621981","0.0-2.0-11.0-0.33","1601.800000011921","","","stimuli/Set_1_rs/112a.jpg","67","","","TR","o","true","o","","","","","","","","","","",""
"image-keyboard-response","136","626484","0.0-2.0-11.0-0.34","1003","","","stimuli/Set_1_rs/171a.jpg","77","","","TF","n","true","n","","","","","","","","","","",""
"image-keyboard-response","137","630987","0.0-2.0-11.0-0.35","964.3000000119209","","","stimuli/Set_1_rs/021a.jpg","67","","","TR","o","true","o","","","","","","","","","","",""
"image-keyboard-response","138","635491","0.0-2.0-11.0-0.36","2428.699999988079","","","stimuli/Set_1_rs/157a.jpg","67","","","TR","o","true","o","","","","","","","","","","",""
"image-keyboard-response","139","639994","0.0-2.0-11.0-0.37","2245.699999988079","","","stimuli/Set_1_rs/059b.jpg","67","","","TL","s","false","o","","","","","","","","","","",""
"image-keyboard-response","140","644497","0.0-2.0-11.0-0.38","1822.5","","","stimuli/Set_1_rs/153a.jpg","77","","","TR","o","false","n","","","","","","","","","","",""
"image-keyboard-response","141","649000","0.0-2.0-11.0-0.39","1095.199999988079","","","stimuli/Set_1_rs/002a.jpg","77","","","TF","n","true","n","","","","","","","","","","",""
"image-keyboard-response","142","653504","0.0-2.0-11.0-0.40","959.9000000357628","","","stimuli/Set_1_rs/041a.jpg","77","","","TF","n","true","n","","","","","","","","","","",""
"image-keyboard-response","143","658007","0.0-2.0-11.0-0.41","1896.0999999642372","","","stimuli/Set_1_rs/012b.jpg","67","","","TL","s","false","o","","","","","","","","","","",""
"image-keyboard-response","144","662510","0.0-2.0-11.0-0.42","1088.699999988079","","","stimuli/Set_1_rs/083b.jpg","67","","","TL","s","false","o","","","","","","","","","","",""
"image-keyboard-response","145","667014","0.0-2.0-11.0-0.43","1049.5999999642372","","","stimuli/Set_1_rs/051a.jpg","77","","","TF","n","true","n","","","","","","","","","","",""
"image-keyboard-response","146","671517","0.0-2.0-11.0-0.44","978.1000000238419","","","stimuli/Set_1_rs/168a.jpg","77","","","TF","n","true","n","","","","","","","","","","",""
"image-keyboard-response","147","676020","0.0-2.0-11.0-0.45","779.1000000238419","","","stimuli/Set_1_rs/155b.jpg","77","","","TL","s","false","n","","","","","","","","","","",""
"image-keyboard-response","148","680522","0.0-2.0-11.0-0.46","931.9000000357628","","","stimuli/Set_1_rs/045b.jpg","77","","","TL","s","false","n","","","","","","","","","","",""
"image-keyboard-response","149","685025","0.0-2.0-11.0-0.47","2381.2000000476837","","","stimuli/Set_1_rs/031b.jpg","66","","","TL","s","true","s","","","","","","","","","","",""
"image-keyboard-response","150","689527","0.0-2.0-11.0-0.48","1126","","","stimuli/Set_1_rs/136a.jpg","67","","","TR","o","true","o","","","","","","","","","","",""
"image-keyboard-response","151","694030","0.0-2.0-11.0-0.49","863.6000000238419","","","stimuli/Set_1_rs/053a.jpg","77","","","TF","n","true","n","","","","","","","","","","",""
"image-keyboard-response","152","698535","0.0-2.0-11.0-0.50","1064.300000011921","","","stimuli/Set_1_rs/061b.jpg","77","","","TL","s","false","n","","","","","","","","","","",""
"image-keyboard-response","153","703038","0.0-2.0-11.0-0.51","864.1999999880791","","","stimuli/Set_1_rs/062a.jpg","77","","","TF","n","true","n","","","","","","","","","","",""
"image-keyboard-response","154","707541","0.0-2.0-11.0-0.52","2361.399999976158","","","stimuli/Set_1_rs/009a.jpg","66","","","TR","o","false","s","","","","","","","","","","",""
"image-keyboard-response","155","712044","0.0-2.0-11.0-0.53","1393.4000000357628","","","stimuli/Set_1_rs/099b.jpg","67","","","TL","s","false","o","","","","","","","","","","",""
"image-keyboard-response","156","716547","0.0-2.0-11.0-0.54","1210.6000000238419","","","stimuli/Set_1_rs/030a.jpg","67","","","TR","o","true","o","","","","","","","","","","",""
"image-keyboard-response","157","721051","0.0-2.0-11.0-0.55","931.5","","","stimuli/Set_1_rs/029a.jpg","67","","","TR","o","true","o","","","","","","","","","","",""
"image-keyboard-response","158","725554","0.0-2.0-11.0-0.56","2795.899999976158","","","stimuli/Set_1_rs/140b.jpg","66","","","TL","s","true","s","","","","","","","","","","",""
"image-keyboard-response","159","730058","0.0-2.0-11.0-0.57","980.6999999880791","","","stimuli/Set_1_rs/182a.jpg","77","","","TF","n","true","n","","","","","","","","","","",""
"image-keyboard-response","160","734561","0.0-2.0-11.0-0.58","1164.8999999761581","","","stimuli/Set_1_rs/151a.jpg","77","","","TF","n","true","n","","","","","","","","","","",""
"image-keyboard-response","161","739064","0.0-2.0-11.0-0.59","1381.5","","","stimuli/Set_1_rs/142a.jpg","77","","","TR","o","false","n","","","","","","","","","","",""
"image-keyboard-response","162","743567","0.0-2.0-11.0-0.60","1215","","","stimuli/Set_1_rs/070a.jpg","77","","","TR","o","false","n","","","","","","","","","","",""
"image-keyboard-response","163","748071","0.0-2.0-11.0-0.61","1304.300000011921","","","stimuli/Set_1_rs/121a.jpg","77","","","TF","n","true","n","","","","","","","","","","",""
"image-keyboard-response","164","752573","0.0-2.0-11.0-0.62","1809.199999988079","","","stimuli/Set_1_rs/008b.jpg","66","","","TL","s","true","s","","","","","","","","","","",""
"image-keyboard-response","165","757075","0.0-2.0-11.0-0.63","2058.699999988079","","","stimuli/Set_1_rs/092b.jpg","67","","","TL","s","false","o","","","","","","","","","","",""
"image-keyboard-response","166","761577","0.0-2.0-11.0-0.64","1012.5","","","stimuli/Set_1_rs/192a.jpg","67","","","TR","o","true","o","","","","","","","","","","",""
"image-keyboard-response","167","766080","0.0-2.0-11.0-0.65","1102","","","stimuli/Set_1_rs/147a.jpg","67","","","TR","o","true","o","","","","","","","","","","",""
"image-keyboard-response","168","770583","0.0-2.0-11.0-0.66","903.3999999761581","","","stimuli/Set_1_rs/032a.jpg","77","","","TF","n","true","n","","","","","","","","","","",""
"image-keyboard-response","169","775087","0.0-2.0-11.0-0.67","1264.199999988079","","","stimuli/Set_1_rs/128b.jpg","77","","","TL","s","false","n","","","","","","","","","","",""
"image-keyboard-response","170","779589","0.0-2.0-11.0-0.68","920.6999999880791","","","stimuli/Set_1_rs/186a.jpg","77","","","TF","n","true","n","","","","","","","","","","",""
"image-keyboard-response","171","784092","0.0-2.0-11.0-0.69","1090.199999988079","","","stimuli/Set_1_rs/109a.jpg","67","","","TR","o","true","o","","","","","","","","","","",""
"image-keyboard-response","172","788594","0.0-2.0-11.0-0.70","924","","","stimuli/Set_1_rs/160a.jpg","77","","","TF","n","true","n","","","","","","","","","","",""
"image-keyboard-response","173","793096","0.0-2.0-11.0-0.71","1989.9000000357628","","","stimuli/Set_1_rs/086a.jpg","66","","","TR","o","false","s","","","","","","","","","","",""
"image-keyboard-response","174","797598","0.0-2.0-11.0-0.72","1151.800000011921","","","stimuli/Set_1_rs/023b.jpg","67","","","TL","s","false","o","","","","","","","","","","",""
"image-keyboard-response","175","802100","0.0-2.0-11.0-0.73","1721.5999999642372","","","stimuli/Set_1_rs/114b.jpg","67","","","TL","s","false","o","","","","","","","","","","",""
"image-keyboard-response","176","806603","0.0-2.0-11.0-0.74","1554.699999988079","","","stimuli/Set_1_rs/033b.jpg","67","","","TL","s","false","o","","","","","","","","","","",""
"image-keyboard-response","177","811106","0.0-2.0-11.0-0.75","1164.3999999761581","","","stimuli/Set_1_rs/010a.jpg","67","","","TR","o","true","o","","","","","","","","","","",""
"image-keyboard-response","178","815609","0.0-2.0-11.0-0.76","1205.300000011921","","","stimuli/Set_1_rs/150a.jpg","67","","","TR","o","true","o","","","","","","","","","","",""
"image-keyboard-response","179","820111","0.0-2.0-11.0-0.77","878.0999999642372","","","stimuli/Set_1_rs/038a.jpg","67","","","TR","o","true","o","","","","","","","","","","",""
"image-keyboard-response","180","824614","0.0-2.0-11.0-0.78","839.3000000119209","","","stimuli/Set_1_rs/022b.jpg","67","","","TL","s","false","o","","","","","","","","","","",""
"image-keyboard-response","181","829116","0.0-2.0-11.0-0.79","944.8999999761581","","","stimuli/Set_1_rs/018a.jpg","77","","","TF","n","true","n","","","","","","","","","","",""
"image-keyboard-response","182","833619","0.0-2.0-11.0-0.80","874.4000000357628","","","stimuli/Set_1_rs/081a.jpg","77","","","TF","n","true","n","","","","","","","","","","",""
"image-keyboard-response","183","838121","0.0-2.0-11.0-0.81","1219.699999988079","","","stimuli/Set_1_rs/107a.jpg","67","","","TR","o","true","o","","","","","","","","","","",""
"image-keyboard-response","184","842625","0.0-2.0-11.0-0.82","957.2999999523163","","","stimuli/Set_1_rs/101b.jpg","67","","","TL","s","false","o","","","","","","","","","","",""
"image-keyboard-response","185","847128","0.0-2.0-11.0-0.83","2149.399999976158","","","stimuli/Set_1_rs/178b.jpg","66","","","TL","s","true","s","","","","","","","","","","",""
"image-keyboard-response","186","851631","0.0-2.0-11.0-0.84","1918.8999999761581","","","stimuli/Set_1_rs/103b.jpg","66","","","TL","s","true","s","","","","","","","","","","",""
"image-keyboard-response","187","856134","0.0-2.0-11.0-0.85","1016","","","stimuli/Set_1_rs/116b.jpg","67","","","TL","s","false","o","","","","","","","","","","",""
"image-keyboard-response","188","860637","0.0-2.0-11.0-0.86","928.8999999761581","","","stimuli/Set_1_rs/122a.jpg","77","","","TF","n","true","n","","","","","","","","","","",""
"image-keyboard-response","189","865139","0.0-2.0-11.0-0.87","905.8000000119209","","","stimuli/Set_1_rs/044a.jpg","67","","","TR","o","true","o","","","","","","","","","","",""
"image-keyboard-response","190","869641","0.0-2.0-11.0-0.88","1044.0999999642372","","","stimuli/Set_1_rs/049a.jpg","67","","","TR","o","true","o","","","","","","","","","","",""
"image-keyboard-response","191","874144","0.0-2.0-11.0-0.89","1037.5","","","stimuli/Set_1_rs/118a.jpg","67","","","TR","o","true","o","","","","","","","","","","",""
"image-keyboard-response","192","878647","0.0-2.0-11.0-0.90","902.6000000238419","","","stimuli/Set_1_rs/040a.jpg","67","","","TR","o","true","o","","","","","","","","","","",""
"image-keyboard-response","193","883150","0.0-2.0-11.0-0.91","1407.3999999761581","","","stimuli/Set_1_rs/011b.jpg","67","","","TL","s","false","o","","","","","","","","","","",""
"image-keyboard-response","194","887652","0.0-2.0-11.0-0.92","856.5","","","stimuli/Set_1_rs/087a.jpg","77","","","TF","n","true","n","","","","","","","","","","",""
"image-keyboard-response","195","892154","0.0-2.0-11.0-0.93","1026.4000000357628","","","stimuli/Set_1_rs/063a.jpg","67","","","TR","o","true","o","","","","","","","","","","",""
"image-keyboard-response","196","896657","0.0-2.0-11.0-0.94","1212","","","stimuli/Set_1_rs/098b.jpg","67","","","TL","s","false","o","","","","","","","","","","",""
"image-keyboard-response","197","901160","0.0-2.0-11.0-0.95","836.8000000119209","","","stimuli/Set_1_rs/058a.jpg","67","","","TR","o","true","o","","","","","","","","","","",""
"html-keyboard-response","198","931976","0.0-3.0","30814.80000001192","","","<p>Vége a feladatnak. Köszönjük a részvételt!</p>","32","","","","","","","24","2","8","17","7","9","1","0","32","0.6755793226381462","0.21212121212121213"
