"trial_type","trial_index","time_elapsed","internal_node_id","rt","responses","success","stimulus","key_press","cond","enc_response","condition","correct_response","correct","rec_response","targ_old","targ_sim","targ_new","lure_old","lure_sim","lure_new","foil_old","foil_sim","foil_new","recognition_ratio","ldi"
"pavlovia","0","3","0.0-0.0","","","","","","","","","","","","","","","","","","","","","",""
"survey-multi-choice","1","4789","0.0-1.0","4784.099999904633","{""Q0"":""Igen"",""Q1"":""Igen""}","","","","","","","","","","","","","","","","","","","",""
"survey-text","2","12788","0.0-2.0-0.0","7997.099999904633","{""Q0"":""909857""}","","","","","","","","","","","","","","","","","","","",""
"fullscreen","3","14719","0.0-2.0-1.0","","","true","","","","","","","","","","","","","","","","","","",""
"html-keyboard-response","4","22445","0.0-2.0-2.0","7725.299999952316","","","<p>Üdvözöljük! Ez a feladat két részből áll, és összesen 10-15 percet vesz igénybe.</p>","32","","","","","","","","","","","","","","","","",""
"html-keyboard-response","5","60973","0.0-2.0-3.0-0.0","38525","","","<p>Az első részben tárgyakat lát majd a képernyőn, egymás után fognak megjelenni.<br>Az Ön feladata eldönteni, hogy a tárgyak <i>beltéri vagy kültéri</i> tárgyak-e.</p>						   <p>Amennyiben a tárgyat általában beltéren látja, nyomja le a <b>C</b> billentyűt. Amennyiben a tárgyat általában kültéren látja, nyomja le az <b>M</b> billentyűt.</p>						   <p>Ebben a feladatban nincsen mindig egyértelműen jó megoldás. Válaszoljon legjobb tudása szerint. A válaszadásra 2 másodperce lesz.","32","","","","","","","","","","","","","","","","",""
"html-keyboard-response","6","62975","0.0-2.0-3.0-1.0","null","","","<p>Kezdődik a gyakorlás...</p>","null","","","","","","","","","","","","","","","","",""
"image-keyboard-response","7","64979","0.0-2.0-4.0-0.0","null","","","stimuli/Set_2_rs/165b.jpg","null","-","null","","","","","","","","","","","","","","",""
"html-keyboard-response","8","75804","0.0-2.0-4.0-1.0","10323.399999856949","","","<p>Az Ön válasza:</p><p>Nem adott választ.</p>","32","","","","","","","","","","","","","","","","",""
"image-keyboard-response","9","77807","0.0-2.0-4.0-0.1","null","","","stimuli/Set_2_rs/034a.jpg","null","-","null","","","","","","","","","","","","","","",""
"html-keyboard-response","10","80572","0.0-2.0-4.0-1.1","2263.2999999523163","","","<p>Az Ön válasza:</p><p>Nem adott választ.</p>","32","","","","","","","","","","","","","","","","",""
"image-keyboard-response","11","82575","0.0-2.0-4.0-0.2","null","","","stimuli/Set_2_rs/049a.jpg","null","SL","null","","","","","","","","","","","","","","",""
"html-keyboard-response","12","85356","0.0-2.0-4.0-1.2","2279.600000143051","","","<p>Az Ön válasza:</p><p>Nem adott választ.</p>","32","","","","","","","","","","","","","","","","",""
"image-keyboard-response","13","87358","0.0-2.0-4.0-0.3","null","","","stimuli/Set_2_rs/028a.jpg","null","SR","null","","","","","","","","","","","","","","",""
"html-keyboard-response","14","91884","0.0-2.0-4.0-1.3","4022.9000000953674","","","<p>Az Ön válasza:</p><p>Nem adott választ.</p>","32","","","","","","","","","","","","","","","","",""
"image-keyboard-response","15","93886","0.0-2.0-4.0-0.4","1774","","","stimuli/Set_2_rs/135a.jpg","67","SL","indoor","","","","","","","","","","","","","","",""
"html-keyboard-response","16","95676","0.0-2.0-4.0-1.4","1287.8999998569489","","","<p>Az Ön válasza:</p><p>Beltéri.</p>","32","","","","","","","","","","","","","","","","",""
"image-keyboard-response","17","97677","0.0-2.0-4.0-0.5","null","","","stimuli/Set_2_rs/137a.jpg","null","SR","null","","","","","","","","","","","","","","",""
"html-keyboard-response","18","100076","0.0-2.0-4.0-1.5","1896.9000000953674","","","<p>Az Ön válasza:</p><p>Nem adott választ.</p>","32","","","","","","","","","","","","","","","","",""
"html-keyboard-response","19","124875","0.0-2.0-5.0-0.0","24799.299999952316","","","<p>Ez volt a gyakorlás. A feladat következik. A feladat alatt már nem kap visszajelzést.</p>","32","","","","","","","","","","","","","","","","",""
"html-keyboard-response","20","126877","0.0-2.0-5.0-1.0","null","","","<p>Kezdődik a feladat...</p>","null","","","","","","","","","","","","","","","","",""
"image-keyboard-response","21","129379","0.0-2.0-6.0-0.0","1419.6000001430511","","","stimuli/Set_1_rs/157a.jpg","67","","indoor","SR","","","","","","","","","","","","","",""
"image-keyboard-response","22","131881","0.0-2.0-6.0-0.1","982","","","stimuli/Set_1_rs/009a.jpg","67","","indoor","SR","","","","","","","","","","","","","",""
"image-keyboard-response","23","134384","0.0-2.0-6.0-0.2","1728.3999998569489","","","stimuli/Set_1_rs/059a.jpg","67","","indoor","SL","","","","","","","","","","","","","",""
"image-keyboard-response","24","136887","0.0-2.0-6.0-0.3","1625.5","","","stimuli/Set_1_rs/024a.jpg","77","","outdoor","SR","","","","","","","","","","","","","",""
"image-keyboard-response","25","139389","0.0-2.0-6.0-0.4","1010.2000000476837","","","stimuli/Set_1_rs/101a.jpg","67","","indoor","SL","","","","","","","","","","","","","",""
"image-keyboard-response","26","141891","0.0-2.0-6.0-0.5","1164.7999999523163","","","stimuli/Set_1_rs/137a.jpg","77","","outdoor","SR","","","","","","","","","","","","","",""
"image-keyboard-response","27","144393","0.0-2.0-6.0-0.6","1062.4000000953674","","","stimuli/Set_1_rs/011a.jpg","77","","outdoor","SL","","","","","","","","","","","","","",""
"image-keyboard-response","28","146896","0.0-2.0-6.0-0.7","1104.9000000953674","","","stimuli/Set_1_rs/128a.jpg","67","","indoor","SL","","","","","","","","","","","","","",""
"image-keyboard-response","29","149398","0.0-2.0-6.0-0.8","1337.2999999523163","","","stimuli/Set_1_rs/083a.jpg","67","","indoor","SL","","","","","","","","","","","","","",""
"image-keyboard-response","30","151899","0.0-2.0-6.0-0.9","1411.2999999523163","","","stimuli/Set_1_rs/136a.jpg","67","","indoor","SR","","","","","","","","","","","","","",""
"image-keyboard-response","31","154402","0.0-2.0-6.0-0.10","1229.9000000953674","","","stimuli/Set_1_rs/103a.jpg","67","","indoor","SL","","","","","","","","","","","","","",""
"image-keyboard-response","32","156904","0.0-2.0-6.0-0.11","1127.5","","","stimuli/Set_1_rs/086a.jpg","67","","indoor","SR","","","","","","","","","","","","","",""
"image-keyboard-response","33","159407","0.0-2.0-6.0-0.12","1344.7000000476837","","","stimuli/Set_1_rs/099a.jpg","77","","outdoor","SL","","","","","","","","","","","","","",""
"image-keyboard-response","34","161908","0.0-2.0-6.0-0.13","1354.3999998569489","","","stimuli/Set_1_rs/178a.jpg","67","","indoor","SL","","","","","","","","","","","","","",""
"image-keyboard-response","35","164411","0.0-2.0-6.0-0.14","964.7000000476837","","","stimuli/Set_1_rs/134a.jpg","67","","indoor","SL","","","","","","","","","","","","","",""
"image-keyboard-response","36","166914","0.0-2.0-6.0-0.15","894.7000000476837","","","stimuli/Set_1_rs/156a.jpg","67","","indoor","SL","","","","","","","","","","","","","",""
"image-keyboard-response","37","169416","0.0-2.0-6.0-0.16","1110.9000000953674","","","stimuli/Set_1_rs/054a.jpg","67","","indoor","SR","","","","","","","","","","","","","",""
"image-keyboard-response","38","171917","0.0-2.0-6.0-0.17","1601.3999998569489","","","stimuli/Set_1_rs/092a.jpg","67","","indoor","SL","","","","","","","","","","","","","",""
"image-keyboard-response","39","174419","0.0-2.0-6.0-0.18","2188","","","stimuli/Set_1_rs/031a.jpg","67","","indoor","SL","","","","","","","","","","","","","",""
"image-keyboard-response","40","176920","0.0-2.0-6.0-0.19","998","","","stimuli/Set_1_rs/013a.jpg","67","","indoor","SL","","","","","","","","","","","","","",""
"image-keyboard-response","41","179423","0.0-2.0-6.0-0.20","928.2000000476837","","","stimuli/Set_1_rs/075a.jpg","67","","indoor","SL","","","","","","","","","","","","","",""
"image-keyboard-response","42","181925","0.0-2.0-6.0-0.21","1946.4000000953674","","","stimuli/Set_1_rs/150a.jpg","67","","indoor","SR","","","","","","","","","","","","","",""
"image-keyboard-response","43","184427","0.0-2.0-6.0-0.22","819.5999999046326","","","stimuli/Set_1_rs/094a.jpg","67","","indoor","SL","","","","","","","","","","","","","",""
"image-keyboard-response","44","186930","0.0-2.0-6.0-0.23","1118","","","stimuli/Set_1_rs/090a.jpg","77","","outdoor","SL","","","","","","","","","","","","","",""
"image-keyboard-response","45","189432","0.0-2.0-6.0-0.24","1319","","","stimuli/Set_1_rs/192a.jpg","67","","indoor","SR","","","","","","","","","","","","","",""
"image-keyboard-response","46","191934","0.0-2.0-6.0-0.25","1345.6000001430511","","","stimuli/Set_1_rs/116a.jpg","67","","indoor","SL","","","","","","","","","","","","","",""
"image-keyboard-response","47","194435","0.0-2.0-6.0-0.26","1020","","","stimuli/Set_1_rs/044a.jpg","67","","indoor","SR","","","","","","","","","","","","","",""
"image-keyboard-response","48","196937","0.0-2.0-6.0-0.27","1558.2999999523163","","","stimuli/Set_1_rs/114a.jpg","77","","outdoor","SL","","","","","","","","","","","","","",""
"image-keyboard-response","49","199440","0.0-2.0-6.0-0.28","1071.7999999523163","","","stimuli/Set_1_rs/112a.jpg","67","","indoor","SR","","","","","","","","","","","","","",""
"image-keyboard-response","50","201942","0.0-2.0-6.0-0.29","1145.5999999046326","","","stimuli/Set_1_rs/052a.jpg","67","","indoor","SL","","","","","","","","","","","","","",""
"image-keyboard-response","51","204443","0.0-2.0-6.0-0.30","1747.9000000953674","","","stimuli/Set_1_rs/058a.jpg","67","","indoor","SR","","","","","","","","","","","","","",""
"image-keyboard-response","52","206945","0.0-2.0-6.0-0.31","1565.9000000953674","","","stimuli/Set_1_rs/023a.jpg","67","","indoor","SL","","","","","","","","","","","","","",""
"image-keyboard-response","53","209447","0.0-2.0-6.0-0.32","1751.5999999046326","","","stimuli/Set_1_rs/030a.jpg","67","","indoor","SR","","","","","","","","","","","","","",""
"image-keyboard-response","54","211949","0.0-2.0-6.0-0.33","1122.2000000476837","","","stimuli/Set_1_rs/091a.jpg","67","","indoor","SR","","","","","","","","","","","","","",""
"image-keyboard-response","55","214450","0.0-2.0-6.0-0.34","1052.7999999523163","","","stimuli/Set_1_rs/147a.jpg","67","","indoor","SR","","","","","","","","","","","","","",""
"image-keyboard-response","56","216952","0.0-2.0-6.0-0.35","1143.2999999523163","","","stimuli/Set_1_rs/063a.jpg","67","","indoor","SR","","","","","","","","","","","","","",""
"image-keyboard-response","57","219455","0.0-2.0-6.0-0.36","1217.0999999046326","","","stimuli/Set_1_rs/040a.jpg","77","","outdoor","SR","","","","","","","","","","","","","",""
"image-keyboard-response","58","221956","0.0-2.0-6.0-0.37","938.8000001907349","","","stimuli/Set_1_rs/038a.jpg","67","","indoor","SR","","","","","","","","","","","","","",""
"image-keyboard-response","59","224458","0.0-2.0-6.0-0.38","1317","","","stimuli/Set_1_rs/100a.jpg","67","","indoor","SL","","","","","","","","","","","","","",""
"image-keyboard-response","60","226960","0.0-2.0-6.0-0.39","1647.6000001430511","","","stimuli/Set_1_rs/109a.jpg","67","","indoor","SR","","","","","","","","","","","","","",""
"image-keyboard-response","61","229463","0.0-2.0-6.0-0.40","2280.7000000476837","","","stimuli/Set_1_rs/191a.jpg","67","","indoor","SR","","","","","","","","","","","","","",""
"image-keyboard-response","62","231965","0.0-2.0-6.0-0.41","1042.5","","","stimuli/Set_1_rs/061a.jpg","67","","indoor","SL","","","","","","","","","","","","","",""
"image-keyboard-response","63","234468","0.0-2.0-6.0-0.42","1243.5","","","stimuli/Set_1_rs/162a.jpg","67","","indoor","SR","","","","","","","","","","","","","",""
"image-keyboard-response","64","236969","0.0-2.0-6.0-0.43","1541.4000000953674","","","stimuli/Set_1_rs/046a.jpg","67","","indoor","SR","","","","","","","","","","","","","",""
"image-keyboard-response","65","239472","0.0-2.0-6.0-0.44","1023.2000000476837","","","stimuli/Set_1_rs/155a.jpg","77","","outdoor","SL","","","","","","","","","","","","","",""
"image-keyboard-response","66","241973","0.0-2.0-6.0-0.45","1865.1999998092651","","","stimuli/Set_1_rs/010a.jpg","77","","outdoor","SR","","","","","","","","","","","","","",""
"image-keyboard-response","67","244476","0.0-2.0-6.0-0.46","1411.7000000476837","","","stimuli/Set_1_rs/142a.jpg","77","","outdoor","SR","","","","","","","","","","","","","",""
"image-keyboard-response","68","246978","0.0-2.0-6.0-0.47","2301.2999999523163","","","stimuli/Set_1_rs/045a.jpg","77","","outdoor","SL","","","","","","","","","","","","","",""
"image-keyboard-response","69","249480","0.0-2.0-6.0-0.48","1270.7999999523163","","","stimuli/Set_1_rs/070a.jpg","77","","outdoor","SR","","","","","","","","","","","","","",""
"image-keyboard-response","70","251983","0.0-2.0-6.0-0.49","1472.7000000476837","","","stimuli/Set_1_rs/022a.jpg","77","","outdoor","SL","","","","","","","","","","","","","",""
"image-keyboard-response","71","254484","0.0-2.0-6.0-0.50","1962.2000000476837","","","stimuli/Set_1_rs/021a.jpg","77","","outdoor","SR","","","","","","","","","","","","","",""
"image-keyboard-response","72","256986","0.0-2.0-6.0-0.51","916.4000000953674","","","stimuli/Set_1_rs/098a.jpg","67","","indoor","SL","","","","","","","","","","","","","",""
"image-keyboard-response","73","259489","0.0-2.0-6.0-0.52","877.7000000476837","","","stimuli/Set_1_rs/008a.jpg","67","","indoor","SL","","","","","","","","","","","","","",""
"image-keyboard-response","74","261990","0.0-2.0-6.0-0.53","1063.9000000953674","","","stimuli/Set_1_rs/012a.jpg","67","","indoor","SL","","","","","","","","","","","","","",""
"image-keyboard-response","75","264492","0.0-2.0-6.0-0.54","722.3999998569489","","","stimuli/Set_1_rs/153a.jpg","67","","indoor","SR","","","","","","","","","","","","","",""
"image-keyboard-response","76","266994","0.0-2.0-6.0-0.55","1196.9000000953674","","","stimuli/Set_1_rs/068a.jpg","67","","indoor","SL","","","","","","","","","","","","","",""
"image-keyboard-response","77","269497","0.0-2.0-6.0-0.56","1045.8999998569489","","","stimuli/Set_1_rs/140a.jpg","67","","indoor","SL","","","","","","","","","","","","","",""
"image-keyboard-response","78","271999","0.0-2.0-6.0-0.57","1663.8000001907349","","","stimuli/Set_1_rs/029a.jpg","67","","indoor","SR","","","","","","","","","","","","","",""
"image-keyboard-response","79","274501","0.0-2.0-6.0-0.58","1050.0999999046326","","","stimuli/Set_1_rs/049a.jpg","77","","outdoor","SR","","","","","","","","","","","","","",""
"image-keyboard-response","80","277003","0.0-2.0-6.0-0.59","835.5","","","stimuli/Set_1_rs/180a.jpg","67","","indoor","SR","","","","","","","","","","","","","",""
"image-keyboard-response","81","279506","0.0-2.0-6.0-0.60","1180.2999999523163","","","stimuli/Set_1_rs/033a.jpg","67","","indoor","SL","","","","","","","","","","","","","",""
"image-keyboard-response","82","282008","0.0-2.0-6.0-0.61","2086.399999856949","","","stimuli/Set_1_rs/119a.jpg","67","","indoor","SL","","","","","","","","","","","","","",""
"image-keyboard-response","83","284509","0.0-2.0-6.0-0.62","1216.7999999523163","","","stimuli/Set_1_rs/118a.jpg","67","","indoor","SR","","","","","","","","","","","","","",""
"image-keyboard-response","84","287011","0.0-2.0-6.0-0.63","1899.0999999046326","","","stimuli/Set_1_rs/107a.jpg","67","","indoor","SR","","","","","","","","","","","","","",""
"html-keyboard-response","85","290170","0.0-2.0-7.0","3157.7999999523163","","","<p>Vége a feladat első részének. Tartson egy pár perces szünetet.</p>","32","","","","","","","","","","","","","","","","",""
"html-keyboard-response","86","328106","0.0-2.0-8.0-0.0","37935.200000047684","","","<p>A következőkben ismét tárgyak jelennek majd meg a képernyőn, egymás után.<br>Az Ön feladata eldönteni, látta-e már ezeket a tárgyakat a vizsgálat első felében.</p>		        			<p>Amennyiben pontosan ugyanezt a tárgyat látta (a tárgy <i>régi</i>), nyomja le a <b>C</b> billentyűt.</p>		        			<p>Amennyiben hasonló tárgyat látott (a tárgy <i>hasonló</i>), nyomja le a <b>B</b> billentyűt.</p>		        			<p>Amennyiben nem látta ezt a tárgyat az első részben (a tárgy <i>új</i>), nyomja le az <b>M</b> billentyűt.</p>","32","","","","","","","","","","","","","","","","",""
"html-keyboard-response","87","330108","0.0-2.0-8.0-1.0","null","","","<p>Kezdődik a gyakorlás...</p>","null","","","","","","","","","","","","","","","","",""
"image-keyboard-response","88","334111","0.0-2.0-9.0-0.0","1466.5","","","stimuli/Set_2_rs/049b.jpg","67","","","TL","l","false","o","","","","","","","","","","",""
"html-keyboard-response","89","337129","0.0-2.0-9.0-1.0","3016.399999856949","","","<p>A helyes válasz: Hasonló.</p><p>Az Ön válasza: Régi.</p>","32","","","","","","","","","","","","","","","","",""
"image-keyboard-response","90","341131","0.0-2.0-9.0-0.1","3182.5","","","stimuli/Set_2_rs/018b.jpg","77","","","TF","n","true","n","","","","","","","","","","",""
"html-keyboard-response","91","343593","0.0-2.0-9.0-1.1","2460","","","<p>A helyes válasz: Új.</p><p>Az Ön válasza: Új.</p>","32","","","","","","","","","","","","","","","","",""
"image-keyboard-response","92","347596","0.0-2.0-9.0-0.2","2125.7999999523163","","","stimuli/Set_2_rs/028a.jpg","67","","","TR","o","true","o","","","","","","","","","","",""
"html-keyboard-response","93","350105","0.0-2.0-9.0-1.2","2507.600000143051","","","<p>A helyes válasz: Régi.</p><p>Az Ön válasza: Régi.</p>","32","","","","","","","","","","","","","","","","",""
"image-keyboard-response","94","354108","0.0-2.0-9.0-0.3","1502.0999999046326","","","stimuli/Set_2_rs/137a.jpg","67","","","TR","o","true","o","","","","","","","","","","",""
"html-keyboard-response","95","359737","0.0-2.0-9.0-1.3","5626.899999856949","","","<p>A helyes válasz: Régi.</p><p>Az Ön válasza: Régi.</p>","32","","","","","","","","","","","","","","","","",""
"image-keyboard-response","96","363740","0.0-2.0-9.0-0.4","1773.5999999046326","","","stimuli/Set_2_rs/135b.jpg","67","","","TL","l","false","o","","","","","","","","","","",""
"html-keyboard-response","97","374345","0.0-2.0-9.0-1.4","10603.200000047684","","","<p>A helyes válasz: Hasonló.</p><p>Az Ön válasza: Régi.</p>","32","","","","","","","","","","","","","","","","",""
"image-keyboard-response","98","378347","0.0-2.0-9.0-0.5","3453.5999999046326","","","stimuli/Set_2_rs/019a.jpg","77","","","TF","n","true","n","","","","","","","","","","",""
"html-keyboard-response","99","389481","0.0-2.0-9.0-1.5","11132.100000143051","","","<p>A helyes válasz: Új.</p><p>Az Ön válasza: Új.</p>","32","","","","","","","","","","","","","","","","",""
"html-keyboard-response","100","413689","0.0-2.0-10.0-0.0","24206.900000095367","","","<p>Ez volt a gyakorlás. A feladat következik. A feladat alatt már nem kap visszajelzést.</p>","32","","","","","","","","","","","","","","","","",""
"html-keyboard-response","101","415690","0.0-2.0-10.0-1.0","null","","","<p>Kezdődik a feladat...</p>","null","","","","","","","","","","","","","","","","",""
"image-keyboard-response","102","420192","0.0-2.0-11.0-0.0","1740.2999999523163","","","stimuli/Set_1_rs/181a.jpg","77","","","TF","n","true","n","","","","","","","","","","",""
"image-keyboard-response","103","424695","0.0-2.0-11.0-0.1","1541.5","","","stimuli/Set_1_rs/152a.jpg","77","","","TF","n","true","n","","","","","","","","","","",""
"image-keyboard-response","104","429199","0.0-2.0-11.0-0.2","1758.7999999523163","","","stimuli/Set_1_rs/090b.jpg","77","","","TL","s","false","n","","","","","","","","","","",""
"image-keyboard-response","105","433701","0.0-2.0-11.0-0.3","1223.2999999523163","","","stimuli/Set_1_rs/126a.jpg","77","","","TF","n","true","n","","","","","","","","","","",""
"image-keyboard-response","106","438204","0.0-2.0-11.0-0.4","1840.5999999046326","","","stimuli/Set_1_rs/068b.jpg","67","","","TL","s","false","o","","","","","","","","","","",""
"image-keyboard-response","107","442707","0.0-2.0-11.0-0.5","1354","","","stimuli/Set_1_rs/054a.jpg","67","","","TR","o","true","o","","","","","","","","","","",""
"image-keyboard-response","108","447211","0.0-2.0-11.0-0.6","1346.4000000953674","","","stimuli/Set_1_rs/162a.jpg","67","","","TR","o","true","o","","","","","","","","","","",""
"image-keyboard-response","109","451713","0.0-2.0-11.0-0.7","2059.100000143051","","","stimuli/Set_1_rs/019a.jpg","77","","","TF","n","true","n","","","","","","","","","","",""
"image-keyboard-response","110","456216","0.0-2.0-11.0-0.8","1972.5","","","stimuli/Set_1_rs/119b.jpg","67","","","TL","s","false","o","","","","","","","","","","",""
"image-keyboard-response","111","460720","0.0-2.0-11.0-0.9","1213.2000000476837","","","stimuli/Set_1_rs/052b.jpg","77","","","TL","s","false","n","","","","","","","","","","",""
"image-keyboard-response","112","465223","0.0-2.0-11.0-0.10","1173.7000000476837","","","stimuli/Set_1_rs/135a.jpg","77","","","TF","n","true","n","","","","","","","","","","",""
"image-keyboard-response","113","469727","0.0-2.0-11.0-0.11","990.2000000476837","","","stimuli/Set_1_rs/004a.jpg","77","","","TF","n","true","n","","","","","","","","","","",""
"image-keyboard-response","114","474230","0.0-2.0-11.0-0.12","966.6999998092651","","","stimuli/Set_1_rs/072a.jpg","77","","","TF","n","true","n","","","","","","","","","","",""
"image-keyboard-response","115","478733","0.0-2.0-11.0-0.13","895.5999999046326","","","stimuli/Set_1_rs/028a.jpg","77","","","TF","n","true","n","","","","","","","","","","",""
"image-keyboard-response","116","483236","0.0-2.0-11.0-0.14","1720.5999999046326","","","stimuli/Set_1_rs/091a.jpg","77","","","TR","o","false","n","","","","","","","","","","",""
"image-keyboard-response","117","487739","0.0-2.0-11.0-0.15","1185.6000001430511","","","stimuli/Set_1_rs/108a.jpg","77","","","TF","n","true","n","","","","","","","","","","",""
"image-keyboard-response","118","492241","0.0-2.0-11.0-0.16","3611","","","stimuli/Set_1_rs/146a.jpg","67","","","TF","n","false","o","","","","","","","","","","",""
"image-keyboard-response","119","496745","0.0-2.0-11.0-0.17","2788.0999999046326","","","stimuli/Set_1_rs/013b.jpg","66","","","TL","s","true","s","","","","","","","","","","",""
"image-keyboard-response","120","501248","0.0-2.0-11.0-0.18","1740.1000001430511","","","stimuli/Set_1_rs/141a.jpg","77","","","TF","n","true","n","","","","","","","","","","",""
"image-keyboard-response","121","505751","0.0-2.0-11.0-0.19","1461","","","stimuli/Set_1_rs/156b.jpg","67","","","TL","s","false","o","","","","","","","","","","",""
"image-keyboard-response","122","510255","0.0-2.0-11.0-0.20","2173.5999999046326","","","stimuli/Set_1_rs/024a.jpg","67","","","TR","o","true","o","","","","","","","","","","",""
"image-keyboard-response","123","514757","0.0-2.0-11.0-0.21","1429.7999999523163","","","stimuli/Set_1_rs/046a.jpg","67","","","TR","o","true","o","","","","","","","","","","",""
"image-keyboard-response","124","519261","0.0-2.0-11.0-0.22","1071.2999999523163","","","stimuli/Set_1_rs/100b.jpg","67","","","TL","s","false","o","","","","","","","","","","",""
"image-keyboard-response","125","523764","0.0-2.0-11.0-0.23","1959.7999999523163","","","stimuli/Set_1_rs/080a.jpg","77","","","TF","n","true","n","","","","","","","","","","",""
"image-keyboard-response","126","528267","0.0-2.0-11.0-0.24","1008.4000000953674","","","stimuli/Set_1_rs/094b.jpg","67","","","TL","s","false","o","","","","","","","","","","",""
"image-keyboard-response","127","532770","0.0-2.0-11.0-0.25","1017.5999999046326","","","stimuli/Set_1_rs/190a.jpg","77","","","TF","n","true","n","","","","","","","","","","",""
"image-keyboard-response","128","537273","0.0-2.0-11.0-0.26","1554.9000000953674","","","stimuli/Set_1_rs/137a.jpg","67","","","TR","o","true","o","","","","","","","","","","",""
"image-keyboard-response","129","541776","0.0-2.0-11.0-0.27","1035.2000000476837","","","stimuli/Set_1_rs/180a.jpg","67","","","TR","o","true","o","","","","","","","","","","",""
"image-keyboard-response","130","546280","0.0-2.0-11.0-0.28","1604.3000001907349","","","stimuli/Set_1_rs/134b.jpg","67","","","TL","s","false","o","","","","","","","","","","",""
"image-keyboard-response","131","550782","0.0-2.0-11.0-0.29","1021.0999999046326","","","stimuli/Set_1_rs/088a.jpg","77","","","TF","n","true","n","","","","","","","","","","",""
"image-keyboard-response","132","555286","0.0-2.0-11.0-0.30","998.2000000476837","","","stimuli/Set_1_rs/165a.jpg","77","","","TF","n","true","n","","","","","","","","","","",""
"image-keyboard-response","133","559789","0.0-2.0-11.0-0.31","1102.2000000476837","","","stimuli/Set_1_rs/075b.jpg","77","","","TL","s","false","n","","","","","","","","","","",""
"image-keyboard-response","134","564292","0.0-2.0-11.0-0.32","1479.5","","","stimuli/Set_1_rs/191a.jpg","67","","","TR","o","true","o","","","","","","","","","","",""
"image-keyboard-response","135","568795","0.0-2.0-11.0-0.33","1168.2000000476837","","","stimuli/Set_1_rs/112a.jpg","67","","","TR","o","true","o","","","","","","","","","","",""
"image-keyboard-response","136","573297","0.0-2.0-11.0-0.34","1129.7000000476837","","","stimuli/Set_1_rs/171a.jpg","77","","","TF","n","true","n","","","","","","","","","","",""
"image-keyboard-response","137","577800","0.0-2.0-11.0-0.35","1106.9000000953674","","","stimuli/Set_1_rs/021a.jpg","67","","","TR","o","true","o","","","","","","","","","","",""
"image-keyboard-response","138","582303","0.0-2.0-11.0-0.36","1308.2999999523163","","","stimuli/Set_1_rs/157a.jpg","77","","","TR","o","false","n","","","","","","","","","","",""
"image-keyboard-response","139","586807","0.0-2.0-11.0-0.37","1605.1000001430511","","","stimuli/Set_1_rs/059b.jpg","67","","","TL","s","false","o","","","","","","","","","","",""
"image-keyboard-response","140","591310","0.0-2.0-11.0-0.38","1613.2000000476837","","","stimuli/Set_1_rs/153a.jpg","67","","","TR","o","true","o","","","","","","","","","","",""
"image-keyboard-response","141","595813","0.0-2.0-11.0-0.39","1061.8999998569489","","","stimuli/Set_1_rs/002a.jpg","77","","","TF","n","true","n","","","","","","","","","","",""
"image-keyboard-response","142","600316","0.0-2.0-11.0-0.40","1134.7000000476837","","","stimuli/Set_1_rs/041a.jpg","77","","","TF","n","true","n","","","","","","","","","","",""
"image-keyboard-response","143","604819","0.0-2.0-11.0-0.41","1623.8999998569489","","","stimuli/Set_1_rs/012b.jpg","67","","","TL","s","false","o","","","","","","","","","","",""
"image-keyboard-response","144","609321","0.0-2.0-11.0-0.42","1953.5","","","stimuli/Set_1_rs/083b.jpg","67","","","TL","s","false","o","","","","","","","","","","",""
"image-keyboard-response","145","613825","0.0-2.0-11.0-0.43","970.7999999523163","","","stimuli/Set_1_rs/051a.jpg","77","","","TF","n","true","n","","","","","","","","","","",""
"image-keyboard-response","146","618327","0.0-2.0-11.0-0.44","1090.9000000953674","","","stimuli/Set_1_rs/168a.jpg","77","","","TF","n","true","n","","","","","","","","","","",""
"image-keyboard-response","147","622830","0.0-2.0-11.0-0.45","2572.2999999523163","","","stimuli/Set_1_rs/155b.jpg","66","","","TL","s","true","s","","","","","","","","","","",""
"image-keyboard-response","148","627333","0.0-2.0-11.0-0.46","1637.5","","","stimuli/Set_1_rs/045b.jpg","67","","","TL","s","false","o","","","","","","","","","","",""
"image-keyboard-response","149","631835","0.0-2.0-11.0-0.47","3198.7999999523163","","","stimuli/Set_1_rs/031b.jpg","66","","","TL","s","true","s","","","","","","","","","","",""
"image-keyboard-response","150","636339","0.0-2.0-11.0-0.48","2856","","","stimuli/Set_1_rs/136a.jpg","67","","","TR","o","true","o","","","","","","","","","","",""
"image-keyboard-response","151","640842","0.0-2.0-11.0-0.49","1168.6999998092651","","","stimuli/Set_1_rs/053a.jpg","77","","","TF","n","true","n","","","","","","","","","","",""
"image-keyboard-response","152","645346","0.0-2.0-11.0-0.50","1497","","","stimuli/Set_1_rs/061b.jpg","77","","","TL","s","false","n","","","","","","","","","","",""
"image-keyboard-response","153","649849","0.0-2.0-11.0-0.51","1250.0999999046326","","","stimuli/Set_1_rs/062a.jpg","77","","","TF","n","true","n","","","","","","","","","","",""
"image-keyboard-response","154","654352","0.0-2.0-11.0-0.52","1018.5","","","stimuli/Set_1_rs/009a.jpg","67","","","TR","o","true","o","","","","","","","","","","",""
"image-keyboard-response","155","658855","0.0-2.0-11.0-0.53","1571.7999999523163","","","stimuli/Set_1_rs/099b.jpg","67","","","TL","s","false","o","","","","","","","","","","",""
"image-keyboard-response","156","663358","0.0-2.0-11.0-0.54","1580.3000001907349","","","stimuli/Set_1_rs/030a.jpg","67","","","TR","o","true","o","","","","","","","","","","",""
"image-keyboard-response","157","667862","0.0-2.0-11.0-0.55","1285.3000001907349","","","stimuli/Set_1_rs/029a.jpg","67","","","TR","o","true","o","","","","","","","","","","",""
"image-keyboard-response","158","672365","0.0-2.0-11.0-0.56","1053.2000000476837","","","stimuli/Set_1_rs/140b.jpg","67","","","TL","s","false","o","","","","","","","","","","",""
"image-keyboard-response","159","676868","0.0-2.0-11.0-0.57","997.8000001907349","","","stimuli/Set_1_rs/182a.jpg","77","","","TF","n","true","n","","","","","","","","","","",""
"image-keyboard-response","160","681370","0.0-2.0-11.0-0.58","1567.2000000476837","","","stimuli/Set_1_rs/151a.jpg","77","","","TF","n","true","n","","","","","","","","","","",""
"image-keyboard-response","161","685873","0.0-2.0-11.0-0.59","1656.7999999523163","","","stimuli/Set_1_rs/142a.jpg","67","","","TR","o","true","o","","","","","","","","","","",""
"image-keyboard-response","162","690377","0.0-2.0-11.0-0.60","817.9000000953674","","","stimuli/Set_1_rs/070a.jpg","67","","","TR","o","true","o","","","","","","","","","","",""
"image-keyboard-response","163","694879","0.0-2.0-11.0-0.61","1130.2999999523163","","","stimuli/Set_1_rs/121a.jpg","77","","","TF","n","true","n","","","","","","","","","","",""
"image-keyboard-response","164","699382","0.0-2.0-11.0-0.62","1091.6999998092651","","","stimuli/Set_1_rs/008b.jpg","67","","","TL","s","false","o","","","","","","","","","","",""
"image-keyboard-response","165","703886","0.0-2.0-11.0-0.63","1708.3999998569489","","","stimuli/Set_1_rs/092b.jpg","77","","","TL","s","false","n","","","","","","","","","","",""
"image-keyboard-response","166","708389","0.0-2.0-11.0-0.64","1156.8999998569489","","","stimuli/Set_1_rs/192a.jpg","67","","","TR","o","true","o","","","","","","","","","","",""
"image-keyboard-response","167","712892","0.0-2.0-11.0-0.65","1213.7000000476837","","","stimuli/Set_1_rs/147a.jpg","67","","","TR","o","true","o","","","","","","","","","","",""
"image-keyboard-response","168","717395","0.0-2.0-11.0-0.66","1622.7000000476837","","","stimuli/Set_1_rs/032a.jpg","77","","","TF","n","true","n","","","","","","","","","","",""
"image-keyboard-response","169","721899","0.0-2.0-11.0-0.67","1615.2999999523163","","","stimuli/Set_1_rs/128b.jpg","67","","","TL","s","false","o","","","","","","","","","","",""
"image-keyboard-response","170","726402","0.0-2.0-11.0-0.68","1415.2999999523163","","","stimuli/Set_1_rs/186a.jpg","77","","","TF","n","true","n","","","","","","","","","","",""
"image-keyboard-response","171","730906","0.0-2.0-11.0-0.69","1168.2000000476837","","","stimuli/Set_1_rs/109a.jpg","67","","","TR","o","true","o","","","","","","","","","","",""
"image-keyboard-response","172","735409","0.0-2.0-11.0-0.70","1240.1999998092651","","","stimuli/Set_1_rs/160a.jpg","77","","","TF","n","true","n","","","","","","","","","","",""
"image-keyboard-response","173","739912","0.0-2.0-11.0-0.71","977.2999999523163","","","stimuli/Set_1_rs/086a.jpg","67","","","TR","o","true","o","","","","","","","","","","",""
"image-keyboard-response","174","744416","0.0-2.0-11.0-0.72","2778","","","stimuli/Set_1_rs/023b.jpg","66","","","TL","s","true","s","","","","","","","","","","",""
"image-keyboard-response","175","748918","0.0-2.0-11.0-0.73","1698.7000000476837","","","stimuli/Set_1_rs/114b.jpg","67","","","TL","s","false","o","","","","","","","","","","",""
"image-keyboard-response","176","753421","0.0-2.0-11.0-0.74","2731.7000000476837","","","stimuli/Set_1_rs/033b.jpg","66","","","TL","s","true","s","","","","","","","","","","",""
"image-keyboard-response","177","757925","0.0-2.0-11.0-0.75","1092.9000000953674","","","stimuli/Set_1_rs/010a.jpg","67","","","TR","o","true","o","","","","","","","","","","",""
"image-keyboard-response","178","762428","0.0-2.0-11.0-0.76","1213.2999999523163","","","stimuli/Set_1_rs/150a.jpg","67","","","TR","o","true","o","","","","","","","","","","",""
"image-keyboard-response","179","766931","0.0-2.0-11.0-0.77","1366.2999999523163","","","stimuli/Set_1_rs/038a.jpg","67","","","TR","o","true","o","","","","","","","","","","",""
"image-keyboard-response","180","771434","0.0-2.0-11.0-0.78","1343","","","stimuli/Set_1_rs/022b.jpg","77","","","TL","s","false","n","","","","","","","","","","",""
"image-keyboard-response","181","775938","0.0-2.0-11.0-0.79","1191.9000000953674","","","stimuli/Set_1_rs/018a.jpg","77","","","TF","n","true","n","","","","","","","","","","",""
"image-keyboard-response","182","780441","0.0-2.0-11.0-0.80","1039.3999998569489","","","stimuli/Set_1_rs/081a.jpg","77","","","TF","n","true","n","","","","","","","","","","",""
"image-keyboard-response","183","784944","0.0-2.0-11.0-0.81","1272.7000000476837","","","stimuli/Set_1_rs/107a.jpg","67","","","TR","o","true","o","","","","","","","","","","",""
"image-keyboard-response","184","789447","0.0-2.0-11.0-0.82","1169.4000000953674","","","stimuli/Set_1_rs/101b.jpg","67","","","TL","s","false","o","","","","","","","","","","",""
"image-keyboard-response","185","793950","0.0-2.0-11.0-0.83","890.1000001430511","","","stimuli/Set_1_rs/178b.jpg","67","","","TL","s","false","o","","","","","","","","","","",""
"image-keyboard-response","186","798452","0.0-2.0-11.0-0.84","1891.6000001430511","","","stimuli/Set_1_rs/103b.jpg","67","","","TL","s","false","o","","","","","","","","","","",""
"image-keyboard-response","187","802955","0.0-2.0-11.0-0.85","956.8999998569489","","","stimuli/Set_1_rs/116b.jpg","67","","","TL","s","false","o","","","","","","","","","","",""
"image-keyboard-response","188","807458","0.0-2.0-11.0-0.86","1142.2000000476837","","","stimuli/Set_1_rs/122a.jpg","77","","","TF","n","true","n","","","","","","","","","","",""
"image-keyboard-response","189","811961","0.0-2.0-11.0-0.87","1231.2000000476837","","","stimuli/Set_1_rs/044a.jpg","67","","","TR","o","true","o","","","","","","","","","","",""
"image-keyboard-response","190","816465","0.0-2.0-11.0-0.88","1080.4000000953674","","","stimuli/Set_1_rs/049a.jpg","77","","","TR","o","false","n","","","","","","","","","","",""
"image-keyboard-response","191","820968","0.0-2.0-11.0-0.89","1248.2999999523163","","","stimuli/Set_1_rs/118a.jpg","67","","","TR","o","true","o","","","","","","","","","","",""
"image-keyboard-response","192","825471","0.0-2.0-11.0-0.90","1113.1000001430511","","","stimuli/Set_1_rs/040a.jpg","67","","","TR","o","true","o","","","","","","","","","","",""
"image-keyboard-response","193","829975","0.0-2.0-11.0-0.91","1057.5999999046326","","","stimuli/Set_1_rs/011b.jpg","67","","","TL","s","false","o","","","","","","","","","","",""
"image-keyboard-response","194","834479","0.0-2.0-11.0-0.92","1289.9000000953674","","","stimuli/Set_1_rs/087a.jpg","77","","","TF","n","true","n","","","","","","","","","","",""
"image-keyboard-response","195","838982","0.0-2.0-11.0-0.93","1186.5","","","stimuli/Set_1_rs/063a.jpg","67","","","TR","o","true","o","","","","","","","","","","",""
"image-keyboard-response","196","843484","0.0-2.0-11.0-0.94","2251.4000000953674","","","stimuli/Set_1_rs/098b.jpg","66","","","TL","s","true","s","","","","","","","","","","",""
"image-keyboard-response","197","847987","0.0-2.0-11.0-0.95","1988.8999998569489","","","stimuli/Set_1_rs/058a.jpg","67","","","TR","o","true","o","","","","","","","","","","",""
"html-keyboard-response","198","860356","0.0-3.0","12366.599999904633","","","<p>Vége a feladatnak. Köszönjük a részvételt!</p>","32","","","","","","","31","0","3","22","6","6","1","0","33","0.8823529411764706","0.17647058823529413"
