"trial_type","trial_index","time_elapsed","internal_node_id","rt","responses","success","stimulus","key_press","cond","enc_response","condition","correct_response","correct","rec_response","targ_old","targ_sim","targ_new","lure_old","lure_sim","lure_new","foil_old","foil_sim","foil_new","recognition_ratio","ldi"
"pavlovia","0","6","0.0-0.0","","","","","","","","","","","","","","","","","","","","","",""
"survey-multi-choice","1","4654","0.0-1.0","4644.200000047684","{""Q0"":""Igen"",""Q1"":""Igen""}","","","","","","","","","","","","","","","","","","","",""
"survey-text","2","10787","0.0-2.0-0.0","6131.300000190735","{""Q0"":""988938""}","","","","","","","","","","","","","","","","","","","",""
"fullscreen","3","12688","0.0-2.0-1.0","","","true","","","","","","","","","","","","","","","","","","",""
"html-keyboard-response","4","14905","0.0-2.0-2.0","2216","","","<p>Üdvözöljük! Ez a feladat két részből áll, és összesen 10-15 percet vesz igénybe.</p>","175","","","","","","","","","","","","","","","","",""
"html-keyboard-response","5","55324","0.0-2.0-3.0-0.0","40416.799999952316","","","<p>Az első részben tárgyakat lát majd a képernyőn, egymás után fognak megjelenni.<br>Az Ön feladata eldönteni, hogy a tárgyak <i>beltéri vagy kültéri</i> tárgyak-e.</p>						   <p>Amennyiben a tárgyat általában beltéren látja, nyomja le a <b>C</b> billentyűt. Amennyiben a tárgyat általában kültéren látja, nyomja le az <b>M</b> billentyűt.</p>						   <p>Ebben a feladatban nincsen mindig egyértelműen jó megoldás. Válaszoljon legjobb tudása szerint. A válaszadásra 2 másodperce lesz.","32","","","","","","","","","","","","","","","","",""
"html-keyboard-response","6","57326","0.0-2.0-3.0-1.0","null","","","<p>Kezdődik a gyakorlás...</p>","null","","","","","","","","","","","","","","","","",""
"image-keyboard-response","7","59329","0.0-2.0-4.0-0.0","null","","","stimuli/Set_2_rs/165b.jpg","null","-","null","","","","","","","","","","","","","","",""
"html-keyboard-response","8","65467","0.0-2.0-4.0-1.0","5635.800000190735","","","<p>Az Ön válasza:</p><p>Nem adott választ.</p>","32","","","","","","","","","","","","","","","","",""
"image-keyboard-response","9","67471","0.0-2.0-4.0-0.1","1501.7000000476837","","","stimuli/Set_2_rs/034a.jpg","67","-","indoor","","","","","","","","","","","","","","",""
"html-keyboard-response","10","69723","0.0-2.0-4.0-1.1","1751","","","<p>Az Ön válasza:</p><p>Beltéri.</p>","32","","","","","","","","","","","","","","","","",""
"image-keyboard-response","11","71725","0.0-2.0-4.0-0.2","1646.2999999523163","","","stimuli/Set_2_rs/049a.jpg","77","SL","outdoor","","","","","","","","","","","","","","",""
"html-keyboard-response","12","72907","0.0-2.0-4.0-1.2","680","","","<p>Az Ön válasza:</p><p>Kültéri.</p>","32","","","","","","","","","","","","","","","","",""
"image-keyboard-response","13","74908","0.0-2.0-4.0-0.3","1838.7000000476837","","","stimuli/Set_2_rs/028a.jpg","67","SR","indoor","","","","","","","","","","","","","","",""
"html-keyboard-response","14","77259","0.0-2.0-4.0-1.3","1849.0999999046326","","","<p>Az Ön válasza:</p><p>Beltéri.</p>","32","","","","","","","","","","","","","","","","",""
"image-keyboard-response","15","79262","0.0-2.0-4.0-0.4","1838.0999999046326","","","stimuli/Set_2_rs/135a.jpg","67","SL","indoor","","","","","","","","","","","","","","",""
"html-keyboard-response","16","81483","0.0-2.0-4.0-1.4","1718.5999999046326","","","<p>Az Ön válasza:</p><p>Beltéri.</p>","32","","","","","","","","","","","","","","","","",""
"image-keyboard-response","17","83485","0.0-2.0-4.0-0.5","1534.2999999523163","","","stimuli/Set_2_rs/137a.jpg","67","SR","indoor","","","","","","","","","","","","","","",""
"html-keyboard-response","18","84859","0.0-2.0-4.0-1.5","872.5999999046326","","","<p>Az Ön válasza:</p><p>Beltéri.</p>","32","","","","","","","","","","","","","","","","",""
"html-keyboard-response","19","102955","0.0-2.0-5.0-0.0","18095.39999985695","","","<p>Ez volt a gyakorlás. A feladat következik. A feladat alatt már nem kap visszajelzést.</p>","32","","","","","","","","","","","","","","","","",""
"html-keyboard-response","20","104956","0.0-2.0-5.0-1.0","null","","","<p>Kezdődik a feladat...</p>","null","","","","","","","","","","","","","","","","",""
"image-keyboard-response","21","107459","0.0-2.0-6.0-0.0","1692.5999999046326","","","stimuli/Set_1_rs/157a.jpg","67","","indoor","SR","","","","","","","","","","","","","",""
"image-keyboard-response","22","109961","0.0-2.0-6.0-0.1","1910.5","","","stimuli/Set_1_rs/009a.jpg","67","","indoor","SR","","","","","","","","","","","","","",""
"image-keyboard-response","23","112464","0.0-2.0-6.0-0.2","1888","","","stimuli/Set_1_rs/059a.jpg","77","","outdoor","SL","","","","","","","","","","","","","",""
"image-keyboard-response","24","114965","0.0-2.0-6.0-0.3","1290","","","stimuli/Set_1_rs/024a.jpg","77","","outdoor","SR","","","","","","","","","","","","","",""
"image-keyboard-response","25","117468","0.0-2.0-6.0-0.4","1795.3999998569489","","","stimuli/Set_1_rs/101a.jpg","67","","indoor","SL","","","","","","","","","","","","","",""
"image-keyboard-response","26","119969","0.0-2.0-6.0-0.5","2205.5999999046326","","","stimuli/Set_1_rs/137a.jpg","67","","indoor","SR","","","","","","","","","","","","","",""
"image-keyboard-response","27","122471","0.0-2.0-6.0-0.6","1912.5","","","stimuli/Set_1_rs/011a.jpg","67","","indoor","SL","","","","","","","","","","","","","",""
"image-keyboard-response","28","124973","0.0-2.0-6.0-0.7","1315.0999999046326","","","stimuli/Set_1_rs/128a.jpg","67","","indoor","SL","","","","","","","","","","","","","",""
"image-keyboard-response","29","127476","0.0-2.0-6.0-0.8","1324.2000000476837","","","stimuli/Set_1_rs/083a.jpg","67","","indoor","SL","","","","","","","","","","","","","",""
"image-keyboard-response","30","129978","0.0-2.0-6.0-0.9","1478.2000000476837","","","stimuli/Set_1_rs/136a.jpg","67","","indoor","SR","","","","","","","","","","","","","",""
"image-keyboard-response","31","132479","0.0-2.0-6.0-0.10","1200.2999999523163","","","stimuli/Set_1_rs/103a.jpg","67","","indoor","SL","","","","","","","","","","","","","",""
"image-keyboard-response","32","134981","0.0-2.0-6.0-0.11","1210.5","","","stimuli/Set_1_rs/086a.jpg","67","","indoor","SR","","","","","","","","","","","","","",""
"image-keyboard-response","33","137485","0.0-2.0-6.0-0.12","1987.8999998569489","","","stimuli/Set_1_rs/099a.jpg","77","","outdoor","SL","","","","","","","","","","","","","",""
"image-keyboard-response","34","139987","0.0-2.0-6.0-0.13","2268.5","","","stimuli/Set_1_rs/178a.jpg","67","","indoor","SL","","","","","","","","","","","","","",""
"image-keyboard-response","35","142489","0.0-2.0-6.0-0.14","1638.3999998569489","","","stimuli/Set_1_rs/134a.jpg","77","","outdoor","SL","","","","","","","","","","","","","",""
"image-keyboard-response","36","144991","0.0-2.0-6.0-0.15","1296.2999999523163","","","stimuli/Set_1_rs/156a.jpg","67","","indoor","SL","","","","","","","","","","","","","",""
"image-keyboard-response","37","147493","0.0-2.0-6.0-0.16","1018.1000001430511","","","stimuli/Set_1_rs/054a.jpg","77","","outdoor","SR","","","","","","","","","","","","","",""
"image-keyboard-response","38","149994","0.0-2.0-6.0-0.17","1684.5999999046326","","","stimuli/Set_1_rs/092a.jpg","77","","outdoor","SL","","","","","","","","","","","","","",""
"image-keyboard-response","39","152496","0.0-2.0-6.0-0.18","1535.0999999046326","","","stimuli/Set_1_rs/031a.jpg","67","","indoor","SL","","","","","","","","","","","","","",""
"image-keyboard-response","40","154998","0.0-2.0-6.0-0.19","1321.1000001430511","","","stimuli/Set_1_rs/013a.jpg","67","","indoor","SL","","","","","","","","","","","","","",""
"image-keyboard-response","41","157501","0.0-2.0-6.0-0.20","1362.2000000476837","","","stimuli/Set_1_rs/075a.jpg","67","","indoor","SL","","","","","","","","","","","","","",""
"image-keyboard-response","42","160003","0.0-2.0-6.0-0.21","null","","","stimuli/Set_1_rs/150a.jpg","null","","null","SR","","","","","","","","","","","","","",""
"image-keyboard-response","43","162504","0.0-2.0-6.0-0.22","1238.7999999523163","","","stimuli/Set_1_rs/094a.jpg","67","","indoor","SL","","","","","","","","","","","","","",""
"image-keyboard-response","44","165006","0.0-2.0-6.0-0.23","913.1999998092651","","","stimuli/Set_1_rs/090a.jpg","77","","outdoor","SL","","","","","","","","","","","","","",""
"image-keyboard-response","45","167508","0.0-2.0-6.0-0.24","1770.0999999046326","","","stimuli/Set_1_rs/192a.jpg","77","","outdoor","SR","","","","","","","","","","","","","",""
"image-keyboard-response","46","170011","0.0-2.0-6.0-0.25","1108.7999999523163","","","stimuli/Set_1_rs/116a.jpg","67","","indoor","SL","","","","","","","","","","","","","",""
"image-keyboard-response","47","172513","0.0-2.0-6.0-0.26","1854.5999999046326","","","stimuli/Set_1_rs/044a.jpg","67","","indoor","SR","","","","","","","","","","","","","",""
"image-keyboard-response","48","175014","0.0-2.0-6.0-0.27","1848.6999998092651","","","stimuli/Set_1_rs/114a.jpg","67","","indoor","SL","","","","","","","","","","","","","",""
"image-keyboard-response","49","177516","0.0-2.0-6.0-0.28","1634.2999999523163","","","stimuli/Set_1_rs/112a.jpg","77","","outdoor","SR","","","","","","","","","","","","","",""
"image-keyboard-response","50","180018","0.0-2.0-6.0-0.29","1100.8000001907349","","","stimuli/Set_1_rs/052a.jpg","67","","indoor","SL","","","","","","","","","","","","","",""
"image-keyboard-response","51","182519","0.0-2.0-6.0-0.30","1351.3000001907349","","","stimuli/Set_1_rs/058a.jpg","67","","indoor","SR","","","","","","","","","","","","","",""
"image-keyboard-response","52","185021","0.0-2.0-6.0-0.31","1538.0999999046326","","","stimuli/Set_1_rs/023a.jpg","77","","outdoor","SL","","","","","","","","","","","","","",""
"image-keyboard-response","53","187523","0.0-2.0-6.0-0.32","1835.5999999046326","","","stimuli/Set_1_rs/030a.jpg","77","","outdoor","SR","","","","","","","","","","","","","",""
"image-keyboard-response","54","190026","0.0-2.0-6.0-0.33","1157.5999999046326","","","stimuli/Set_1_rs/091a.jpg","77","","outdoor","SR","","","","","","","","","","","","","",""
"image-keyboard-response","55","192528","0.0-2.0-6.0-0.34","1614.8999998569489","","","stimuli/Set_1_rs/147a.jpg","67","","indoor","SR","","","","","","","","","","","","","",""
"image-keyboard-response","56","195029","0.0-2.0-6.0-0.35","1673.2000000476837","","","stimuli/Set_1_rs/063a.jpg","77","","outdoor","SR","","","","","","","","","","","","","",""
"image-keyboard-response","57","197531","0.0-2.0-6.0-0.36","1395","","","stimuli/Set_1_rs/040a.jpg","77","","outdoor","SR","","","","","","","","","","","","","",""
"image-keyboard-response","58","200033","0.0-2.0-6.0-0.37","1021.5","","","stimuli/Set_1_rs/038a.jpg","67","","indoor","SR","","","","","","","","","","","","","",""
"image-keyboard-response","59","202535","0.0-2.0-6.0-0.38","1575.5","","","stimuli/Set_1_rs/100a.jpg","67","","indoor","SL","","","","","","","","","","","","","",""
"image-keyboard-response","60","205036","0.0-2.0-6.0-0.39","1201.9000000953674","","","stimuli/Set_1_rs/109a.jpg","77","","outdoor","SR","","","","","","","","","","","","","",""
"image-keyboard-response","61","207539","0.0-2.0-6.0-0.40","2075.699999809265","","","stimuli/Set_1_rs/191a.jpg","67","","indoor","SR","","","","","","","","","","","","","",""
"image-keyboard-response","62","210040","0.0-2.0-6.0-0.41","1669.9000000953674","","","stimuli/Set_1_rs/061a.jpg","67","","indoor","SL","","","","","","","","","","","","","",""
"image-keyboard-response","63","212543","0.0-2.0-6.0-0.42","1488.5999999046326","","","stimuli/Set_1_rs/162a.jpg","67","","indoor","SR","","","","","","","","","","","","","",""
"image-keyboard-response","64","215044","0.0-2.0-6.0-0.43","1433.9000000953674","","","stimuli/Set_1_rs/046a.jpg","67","","indoor","SR","","","","","","","","","","","","","",""
"image-keyboard-response","65","217546","0.0-2.0-6.0-0.44","1092","","","stimuli/Set_1_rs/155a.jpg","77","","outdoor","SL","","","","","","","","","","","","","",""
"image-keyboard-response","66","220048","0.0-2.0-6.0-0.45","1502.2999999523163","","","stimuli/Set_1_rs/010a.jpg","67","","indoor","SR","","","","","","","","","","","","","",""
"image-keyboard-response","67","222550","0.0-2.0-6.0-0.46","1368.5","","","stimuli/Set_1_rs/142a.jpg","77","","outdoor","SR","","","","","","","","","","","","","",""
"image-keyboard-response","68","225052","0.0-2.0-6.0-0.47","1666.2000000476837","","","stimuli/Set_1_rs/045a.jpg","67","","indoor","SL","","","","","","","","","","","","","",""
"image-keyboard-response","69","227554","0.0-2.0-6.0-0.48","1228.0999999046326","","","stimuli/Set_1_rs/070a.jpg","77","","outdoor","SR","","","","","","","","","","","","","",""
"image-keyboard-response","70","230056","0.0-2.0-6.0-0.49","1734.4000000953674","","","stimuli/Set_1_rs/022a.jpg","67","","indoor","SL","","","","","","","","","","","","","",""
"image-keyboard-response","71","232558","0.0-2.0-6.0-0.50","1696.0999999046326","","","stimuli/Set_1_rs/021a.jpg","67","","indoor","SR","","","","","","","","","","","","","",""
"image-keyboard-response","72","235061","0.0-2.0-6.0-0.51","1258.2000000476837","","","stimuli/Set_1_rs/098a.jpg","67","","indoor","SL","","","","","","","","","","","","","",""
"image-keyboard-response","73","237563","0.0-2.0-6.0-0.52","1426.9000000953674","","","stimuli/Set_1_rs/008a.jpg","67","","indoor","SL","","","","","","","","","","","","","",""
"image-keyboard-response","74","240065","0.0-2.0-6.0-0.53","1581.7000000476837","","","stimuli/Set_1_rs/012a.jpg","67","","indoor","SL","","","","","","","","","","","","","",""
"image-keyboard-response","75","242567","0.0-2.0-6.0-0.54","1367.2000000476837","","","stimuli/Set_1_rs/153a.jpg","67","","indoor","SR","","","","","","","","","","","","","",""
"image-keyboard-response","76","245069","0.0-2.0-6.0-0.55","1601.1000001430511","","","stimuli/Set_1_rs/068a.jpg","77","","outdoor","SL","","","","","","","","","","","","","",""
"image-keyboard-response","77","247571","0.0-2.0-6.0-0.56","955","","","stimuli/Set_1_rs/140a.jpg","67","","indoor","SL","","","","","","","","","","","","","",""
"image-keyboard-response","78","250074","0.0-2.0-6.0-0.57","1669.0999999046326","","","stimuli/Set_1_rs/029a.jpg","67","","indoor","SR","","","","","","","","","","","","","",""
"image-keyboard-response","79","252575","0.0-2.0-6.0-0.58","1502.5","","","stimuli/Set_1_rs/049a.jpg","77","","outdoor","SR","","","","","","","","","","","","","",""
"image-keyboard-response","80","255077","0.0-2.0-6.0-0.59","1256.8999998569489","","","stimuli/Set_1_rs/180a.jpg","67","","indoor","SR","","","","","","","","","","","","","",""
"image-keyboard-response","81","257580","0.0-2.0-6.0-0.60","1298.6000001430511","","","stimuli/Set_1_rs/033a.jpg","67","","indoor","SL","","","","","","","","","","","","","",""
"image-keyboard-response","82","260082","0.0-2.0-6.0-0.61","1564","","","stimuli/Set_1_rs/119a.jpg","67","","indoor","SL","","","","","","","","","","","","","",""
"image-keyboard-response","83","262583","0.0-2.0-6.0-0.62","1254.2000000476837","","","stimuli/Set_1_rs/118a.jpg","77","","outdoor","SR","","","","","","","","","","","","","",""
"image-keyboard-response","84","265085","0.0-2.0-6.0-0.63","1200.8999998569489","","","stimuli/Set_1_rs/107a.jpg","77","","outdoor","SR","","","","","","","","","","","","","",""
"html-keyboard-response","85","276457","0.0-2.0-7.0","11371.200000047684","","","<p>Vége a feladat első részének. Tartson egy pár perces szünetet.</p>","32","","","","","","","","","","","","","","","","",""
"html-keyboard-response","86","360168","0.0-2.0-8.0-0.0","83710.79999995232","","","<p>A következőkben ismét tárgyak jelennek majd meg a képernyőn, egymás után.<br>Az Ön feladata eldönteni, látta-e már ezeket a tárgyakat a vizsgálat első felében.</p>		        			<p>Amennyiben pontosan ugyanezt a tárgyat látta (a tárgy <i>régi</i>), nyomja le a <b>C</b> billentyűt.</p>		        			<p>Amennyiben hasonló tárgyat látott (a tárgy <i>hasonló</i>), nyomja le a <b>B</b> billentyűt.</p>		        			<p>Amennyiben nem látta ezt a tárgyat az első részben (a tárgy <i>új</i>), nyomja le az <b>M</b> billentyűt.</p>","32","","","","","","","","","","","","","","","","",""
"html-keyboard-response","87","362170","0.0-2.0-8.0-1.0","null","","","<p>Kezdődik a gyakorlás...</p>","null","","","","","","","","","","","","","","","","",""
"image-keyboard-response","88","366173","0.0-2.0-9.0-0.0","2251.2999999523163","","","stimuli/Set_2_rs/049b.jpg","67","","","TL","l","false","o","","","","","","","","","","",""
"html-keyboard-response","89","389751","0.0-2.0-9.0-1.0","23576.799999952316","","","<p>A helyes válasz: Hasonló.</p><p>Az Ön válasza: Régi.</p>","32","","","","","","","","","","","","","","","","",""
"image-keyboard-response","90","393754","0.0-2.0-9.0-0.1","3149.5999999046326","","","stimuli/Set_2_rs/018b.jpg","77","","","TF","n","true","n","","","","","","","","","","",""
"html-keyboard-response","91","396471","0.0-2.0-9.0-1.1","2715.7000000476837","","","<p>A helyes válasz: Új.</p><p>Az Ön válasza: Új.</p>","32","","","","","","","","","","","","","","","","",""
"image-keyboard-response","92","400474","0.0-2.0-9.0-0.2","1630","","","stimuli/Set_2_rs/028a.jpg","67","","","TR","o","true","o","","","","","","","","","","",""
"html-keyboard-response","93","402871","0.0-2.0-9.0-1.2","2395.2000000476837","","","<p>A helyes válasz: Régi.</p><p>Az Ön válasza: Régi.</p>","32","","","","","","","","","","","","","","","","",""
"image-keyboard-response","94","406874","0.0-2.0-9.0-0.3","1773.7999999523163","","","stimuli/Set_2_rs/137a.jpg","67","","","TR","o","true","o","","","","","","","","","","",""
"html-keyboard-response","95","408503","0.0-2.0-9.0-1.3","1627.3999998569489","","","<p>A helyes válasz: Régi.</p><p>Az Ön válasza: Régi.</p>","32","","","","","","","","","","","","","","","","",""
"image-keyboard-response","96","412506","0.0-2.0-9.0-0.4","2206","","","stimuli/Set_2_rs/135b.jpg","67","","","TL","l","false","o","","","","","","","","","","",""
"html-keyboard-response","97","424664","0.0-2.0-9.0-1.4","12155.599999904633","","","<p>A helyes válasz: Hasonló.</p><p>Az Ön válasza: Régi.</p>","32","","","","","","","","","","","","","","","","",""
"image-keyboard-response","98","428666","0.0-2.0-9.0-0.5","2493.699999809265","","","stimuli/Set_2_rs/019a.jpg","77","","","TF","n","true","n","","","","","","","","","","",""
"html-keyboard-response","99","430711","0.0-2.0-9.0-1.5","2043.5999999046326","","","<p>A helyes válasz: Új.</p><p>Az Ön válasza: Új.</p>","32","","","","","","","","","","","","","","","","",""
"html-keyboard-response","100","441159","0.0-2.0-10.0-0.0","10447.400000095367","","","<p>Ez volt a gyakorlás. A feladat következik. A feladat alatt már nem kap visszajelzést.</p>","32","","","","","","","","","","","","","","","","",""
"html-keyboard-response","101","443162","0.0-2.0-10.0-1.0","null","","","<p>Kezdődik a feladat...</p>","null","","","","","","","","","","","","","","","","",""
"image-keyboard-response","102","447664","0.0-2.0-11.0-0.0","2395.600000143051","","","stimuli/Set_1_rs/181a.jpg","77","","","TF","n","true","n","","","","","","","","","","",""
"image-keyboard-response","103","452167","0.0-2.0-11.0-0.1","1668.4000000953674","","","stimuli/Set_1_rs/152a.jpg","77","","","TF","n","true","n","","","","","","","","","","",""
"image-keyboard-response","104","456669","0.0-2.0-11.0-0.2","2238.300000190735","","","stimuli/Set_1_rs/090b.jpg","66","","","TL","s","true","s","","","","","","","","","","",""
"image-keyboard-response","105","461172","0.0-2.0-11.0-0.3","1175.2999999523163","","","stimuli/Set_1_rs/126a.jpg","77","","","TF","n","true","n","","","","","","","","","","",""
"image-keyboard-response","106","465675","0.0-2.0-11.0-0.4","1984.2999999523163","","","stimuli/Set_1_rs/068b.jpg","67","","","TL","s","false","o","","","","","","","","","","",""
"image-keyboard-response","107","470178","0.0-2.0-11.0-0.5","1481.7999999523163","","","stimuli/Set_1_rs/054a.jpg","67","","","TR","o","true","o","","","","","","","","","","",""
"image-keyboard-response","108","474681","0.0-2.0-11.0-0.6","1922.6999998092651","","","stimuli/Set_1_rs/162a.jpg","67","","","TR","o","true","o","","","","","","","","","","",""
"image-keyboard-response","109","479184","0.0-2.0-11.0-0.7","1227.8999998569489","","","stimuli/Set_1_rs/019a.jpg","77","","","TF","n","true","n","","","","","","","","","","",""
"image-keyboard-response","110","483687","0.0-2.0-11.0-0.8","1701.0999999046326","","","stimuli/Set_1_rs/119b.jpg","66","","","TL","s","true","s","","","","","","","","","","",""
"image-keyboard-response","111","488191","0.0-2.0-11.0-0.9","2237.100000143051","","","stimuli/Set_1_rs/052b.jpg","66","","","TL","s","true","s","","","","","","","","","","",""
"image-keyboard-response","112","492693","0.0-2.0-11.0-0.10","2917.7999999523163","","","stimuli/Set_1_rs/135a.jpg","77","","","TF","n","true","n","","","","","","","","","","",""
"image-keyboard-response","113","497196","0.0-2.0-11.0-0.11","2847.2000000476837","","","stimuli/Set_1_rs/004a.jpg","66","","","TF","n","false","s","","","","","","","","","","",""
"image-keyboard-response","114","501699","0.0-2.0-11.0-0.12","1399.7000000476837","","","stimuli/Set_1_rs/072a.jpg","77","","","TF","n","true","n","","","","","","","","","","",""
"image-keyboard-response","115","506203","0.0-2.0-11.0-0.13","1281","","","stimuli/Set_1_rs/028a.jpg","77","","","TF","n","true","n","","","","","","","","","","",""
"image-keyboard-response","116","510706","0.0-2.0-11.0-0.14","1865.7000000476837","","","stimuli/Set_1_rs/091a.jpg","67","","","TR","o","true","o","","","","","","","","","","",""
"image-keyboard-response","117","515208","0.0-2.0-11.0-0.15","1170.5","","","stimuli/Set_1_rs/108a.jpg","77","","","TF","n","true","n","","","","","","","","","","",""
"image-keyboard-response","118","519712","0.0-2.0-11.0-0.16","2075.600000143051","","","stimuli/Set_1_rs/146a.jpg","66","","","TF","n","false","s","","","","","","","","","","",""
"image-keyboard-response","119","524215","0.0-2.0-11.0-0.17","1572.2999999523163","","","stimuli/Set_1_rs/013b.jpg","66","","","TL","s","true","s","","","","","","","","","","",""
"image-keyboard-response","120","528718","0.0-2.0-11.0-0.18","1165.0999999046326","","","stimuli/Set_1_rs/141a.jpg","77","","","TF","n","true","n","","","","","","","","","","",""
"image-keyboard-response","121","533221","0.0-2.0-11.0-0.19","1574.0999999046326","","","stimuli/Set_1_rs/156b.jpg","66","","","TL","s","true","s","","","","","","","","","","",""
"image-keyboard-response","122","537725","0.0-2.0-11.0-0.20","1806.5999999046326","","","stimuli/Set_1_rs/024a.jpg","67","","","TR","o","true","o","","","","","","","","","","",""
"image-keyboard-response","123","542228","0.0-2.0-11.0-0.21","1607.2000000476837","","","stimuli/Set_1_rs/046a.jpg","67","","","TR","o","true","o","","","","","","","","","","",""
"image-keyboard-response","124","546730","0.0-2.0-11.0-0.22","1984.2000000476837","","","stimuli/Set_1_rs/100b.jpg","66","","","TL","s","true","s","","","","","","","","","","",""
"image-keyboard-response","125","551234","0.0-2.0-11.0-0.23","1289.2000000476837","","","stimuli/Set_1_rs/080a.jpg","77","","","TF","n","true","n","","","","","","","","","","",""
"image-keyboard-response","126","555737","0.0-2.0-11.0-0.24","1378.2999999523163","","","stimuli/Set_1_rs/094b.jpg","66","","","TL","s","true","s","","","","","","","","","","",""
"image-keyboard-response","127","560240","0.0-2.0-11.0-0.25","1051","","","stimuli/Set_1_rs/190a.jpg","77","","","TF","n","true","n","","","","","","","","","","",""
"image-keyboard-response","128","564743","0.0-2.0-11.0-0.26","2003.6999998092651","","","stimuli/Set_1_rs/137a.jpg","66","","","TR","o","false","s","","","","","","","","","","",""
"image-keyboard-response","129","569246","0.0-2.0-11.0-0.27","1548.5","","","stimuli/Set_1_rs/180a.jpg","67","","","TR","o","true","o","","","","","","","","","","",""
"image-keyboard-response","130","573748","0.0-2.0-11.0-0.28","2358.4000000953674","","","stimuli/Set_1_rs/134b.jpg","67","","","TL","s","false","o","","","","","","","","","","",""
"image-keyboard-response","131","578252","0.0-2.0-11.0-0.29","2383.100000143051","","","stimuli/Set_1_rs/088a.jpg","77","","","TF","n","true","n","","","","","","","","","","",""
"image-keyboard-response","132","582754","0.0-2.0-11.0-0.30","1175.9000000953674","","","stimuli/Set_1_rs/165a.jpg","77","","","TF","n","true","n","","","","","","","","","","",""
"image-keyboard-response","133","587258","0.0-2.0-11.0-0.31","1152.8000001907349","","","stimuli/Set_1_rs/075b.jpg","77","","","TL","s","false","n","","","","","","","","","","",""
"image-keyboard-response","134","591761","0.0-2.0-11.0-0.32","3001.7000000476837","","","stimuli/Set_1_rs/191a.jpg","66","","","TR","o","false","s","","","","","","","","","","",""
"image-keyboard-response","135","596264","0.0-2.0-11.0-0.33","1410.5","","","stimuli/Set_1_rs/112a.jpg","67","","","TR","o","true","o","","","","","","","","","","",""
"image-keyboard-response","136","600767","0.0-2.0-11.0-0.34","1083.4000000953674","","","stimuli/Set_1_rs/171a.jpg","77","","","TF","n","true","n","","","","","","","","","","",""
"image-keyboard-response","137","605270","0.0-2.0-11.0-0.35","1956.7999999523163","","","stimuli/Set_1_rs/021a.jpg","66","","","TR","o","false","s","","","","","","","","","","",""
"image-keyboard-response","138","609773","0.0-2.0-11.0-0.36","1453.3999998569489","","","stimuli/Set_1_rs/157a.jpg","67","","","TR","o","true","o","","","","","","","","","","",""
"image-keyboard-response","139","614276","0.0-2.0-11.0-0.37","1590.1999998092651","","","stimuli/Set_1_rs/059b.jpg","66","","","TL","s","true","s","","","","","","","","","","",""
"image-keyboard-response","140","618778","0.0-2.0-11.0-0.38","1887.2999999523163","","","stimuli/Set_1_rs/153a.jpg","66","","","TR","o","false","s","","","","","","","","","","",""
"image-keyboard-response","141","623282","0.0-2.0-11.0-0.39","1336.5","","","stimuli/Set_1_rs/002a.jpg","77","","","TF","n","true","n","","","","","","","","","","",""
"image-keyboard-response","142","627784","0.0-2.0-11.0-0.40","1633.8000001907349","","","stimuli/Set_1_rs/041a.jpg","77","","","TF","n","true","n","","","","","","","","","","",""
"image-keyboard-response","143","632288","0.0-2.0-11.0-0.41","1835.3999998569489","","","stimuli/Set_1_rs/012b.jpg","66","","","TL","s","true","s","","","","","","","","","","",""
"image-keyboard-response","144","636790","0.0-2.0-11.0-0.42","2211.5999999046326","","","stimuli/Set_1_rs/083b.jpg","66","","","TL","s","true","s","","","","","","","","","","",""
"image-keyboard-response","145","641292","0.0-2.0-11.0-0.43","1486.0999999046326","","","stimuli/Set_1_rs/051a.jpg","77","","","TF","n","true","n","","","","","","","","","","",""
"image-keyboard-response","146","645795","0.0-2.0-11.0-0.44","2247.0999999046326","","","stimuli/Set_1_rs/168a.jpg","77","","","TF","n","true","n","","","","","","","","","","",""
"image-keyboard-response","147","650298","0.0-2.0-11.0-0.45","1599.0999999046326","","","stimuli/Set_1_rs/155b.jpg","66","","","TL","s","true","s","","","","","","","","","","",""
"image-keyboard-response","148","654801","0.0-2.0-11.0-0.46","2024.6000001430511","","","stimuli/Set_1_rs/045b.jpg","66","","","TL","s","true","s","","","","","","","","","","",""
"image-keyboard-response","149","659303","0.0-2.0-11.0-0.47","1986.2000000476837","","","stimuli/Set_1_rs/031b.jpg","77","","","TL","s","false","n","","","","","","","","","","",""
"image-keyboard-response","150","663805","0.0-2.0-11.0-0.48","1963.5","","","stimuli/Set_1_rs/136a.jpg","66","","","TR","o","false","s","","","","","","","","","","",""
"image-keyboard-response","151","668309","0.0-2.0-11.0-0.49","1173.0999999046326","","","stimuli/Set_1_rs/053a.jpg","77","","","TF","n","true","n","","","","","","","","","","",""
"image-keyboard-response","152","672811","0.0-2.0-11.0-0.50","2173.399999856949","","","stimuli/Set_1_rs/061b.jpg","77","","","TL","s","false","n","","","","","","","","","","",""
"image-keyboard-response","153","677315","0.0-2.0-11.0-0.51","1669.2999999523163","","","stimuli/Set_1_rs/062a.jpg","77","","","TF","n","true","n","","","","","","","","","","",""
"image-keyboard-response","154","681818","0.0-2.0-11.0-0.52","1582.7999999523163","","","stimuli/Set_1_rs/009a.jpg","67","","","TR","o","true","o","","","","","","","","","","",""
"image-keyboard-response","155","686321","0.0-2.0-11.0-0.53","2136","","","stimuli/Set_1_rs/099b.jpg","67","","","TL","s","false","o","","","","","","","","","","",""
"image-keyboard-response","156","690824","0.0-2.0-11.0-0.54","2192.7000000476837","","","stimuli/Set_1_rs/030a.jpg","67","","","TR","o","true","o","","","","","","","","","","",""
"image-keyboard-response","157","695327","0.0-2.0-11.0-0.55","1833.5","","","stimuli/Set_1_rs/029a.jpg","66","","","TR","o","false","s","","","","","","","","","","",""
"image-keyboard-response","158","699831","0.0-2.0-11.0-0.56","2082.2999999523163","","","stimuli/Set_1_rs/140b.jpg","67","","","TL","s","false","o","","","","","","","","","","",""
"image-keyboard-response","159","704333","0.0-2.0-11.0-0.57","1019.4000000953674","","","stimuli/Set_1_rs/182a.jpg","77","","","TF","n","true","n","","","","","","","","","","",""
"image-keyboard-response","160","708836","0.0-2.0-11.0-0.58","1316.5999999046326","","","stimuli/Set_1_rs/151a.jpg","77","","","TF","n","true","n","","","","","","","","","","",""
"image-keyboard-response","161","713339","0.0-2.0-11.0-0.59","2045.5","","","stimuli/Set_1_rs/142a.jpg","66","","","TR","o","false","s","","","","","","","","","","",""
"image-keyboard-response","162","717842","0.0-2.0-11.0-0.60","2662.9000000953674","","","stimuli/Set_1_rs/070a.jpg","67","","","TR","o","true","o","","","","","","","","","","",""
"image-keyboard-response","163","722345","0.0-2.0-11.0-0.61","959.2000000476837","","","stimuli/Set_1_rs/121a.jpg","77","","","TF","n","true","n","","","","","","","","","","",""
"image-keyboard-response","164","726849","0.0-2.0-11.0-0.62","1640.2000000476837","","","stimuli/Set_1_rs/008b.jpg","66","","","TL","s","true","s","","","","","","","","","","",""
"image-keyboard-response","165","731352","0.0-2.0-11.0-0.63","1936.8999998569489","","","stimuli/Set_1_rs/092b.jpg","66","","","TL","s","true","s","","","","","","","","","","",""
"image-keyboard-response","166","735855","0.0-2.0-11.0-0.64","1449.1999998092651","","","stimuli/Set_1_rs/192a.jpg","67","","","TR","o","true","o","","","","","","","","","","",""
"image-keyboard-response","167","740359","0.0-2.0-11.0-0.65","1489.6999998092651","","","stimuli/Set_1_rs/147a.jpg","67","","","TR","o","true","o","","","","","","","","","","",""
"image-keyboard-response","168","744862","0.0-2.0-11.0-0.66","970.7999999523163","","","stimuli/Set_1_rs/032a.jpg","77","","","TF","n","true","n","","","","","","","","","","",""
"image-keyboard-response","169","749366","0.0-2.0-11.0-0.67","1763.5","","","stimuli/Set_1_rs/128b.jpg","66","","","TL","s","true","s","","","","","","","","","","",""
"image-keyboard-response","170","753868","0.0-2.0-11.0-0.68","1371.5999999046326","","","stimuli/Set_1_rs/186a.jpg","77","","","TF","n","true","n","","","","","","","","","","",""
"image-keyboard-response","171","758372","0.0-2.0-11.0-0.69","1989","","","stimuli/Set_1_rs/109a.jpg","67","","","TR","o","true","o","","","","","","","","","","",""
"image-keyboard-response","172","762875","0.0-2.0-11.0-0.70","1149.7999999523163","","","stimuli/Set_1_rs/160a.jpg","77","","","TF","n","true","n","","","","","","","","","","",""
"image-keyboard-response","173","767377","0.0-2.0-11.0-0.71","1974.5999999046326","","","stimuli/Set_1_rs/086a.jpg","67","","","TR","o","true","o","","","","","","","","","","",""
"image-keyboard-response","174","771880","0.0-2.0-11.0-0.72","1728.1000001430511","","","stimuli/Set_1_rs/023b.jpg","66","","","TL","s","true","s","","","","","","","","","","",""
"image-keyboard-response","175","776383","0.0-2.0-11.0-0.73","1577.6000001430511","","","stimuli/Set_1_rs/114b.jpg","66","","","TL","s","true","s","","","","","","","","","","",""
"image-keyboard-response","176","780886","0.0-2.0-11.0-0.74","1682.0999999046326","","","stimuli/Set_1_rs/033b.jpg","66","","","TL","s","true","s","","","","","","","","","","",""
"image-keyboard-response","177","785389","0.0-2.0-11.0-0.75","1403.1000001430511","","","stimuli/Set_1_rs/010a.jpg","67","","","TR","o","true","o","","","","","","","","","","",""
"image-keyboard-response","178","789892","0.0-2.0-11.0-0.76","2084.0999999046326","","","stimuli/Set_1_rs/150a.jpg","66","","","TR","o","false","s","","","","","","","","","","",""
"image-keyboard-response","179","794395","0.0-2.0-11.0-0.77","1501.2000000476837","","","stimuli/Set_1_rs/038a.jpg","67","","","TR","o","true","o","","","","","","","","","","",""
"image-keyboard-response","180","798897","0.0-2.0-11.0-0.78","1414.3999998569489","","","stimuli/Set_1_rs/022b.jpg","66","","","TL","s","true","s","","","","","","","","","","",""
"image-keyboard-response","181","803400","0.0-2.0-11.0-0.79","1439.9000000953674","","","stimuli/Set_1_rs/018a.jpg","77","","","TF","n","true","n","","","","","","","","","","",""
"image-keyboard-response","182","807903","0.0-2.0-11.0-0.80","1097","","","stimuli/Set_1_rs/081a.jpg","77","","","TF","n","true","n","","","","","","","","","","",""
"image-keyboard-response","183","812406","0.0-2.0-11.0-0.81","1937.6000001430511","","","stimuli/Set_1_rs/107a.jpg","67","","","TR","o","true","o","","","","","","","","","","",""
"image-keyboard-response","184","816909","0.0-2.0-11.0-0.82","1818.5","","","stimuli/Set_1_rs/101b.jpg","66","","","TL","s","true","s","","","","","","","","","","",""
"image-keyboard-response","185","821412","0.0-2.0-11.0-0.83","1763.7999999523163","","","stimuli/Set_1_rs/178b.jpg","66","","","TL","s","true","s","","","","","","","","","","",""
"image-keyboard-response","186","825914","0.0-2.0-11.0-0.84","2300.7999999523163","","","stimuli/Set_1_rs/103b.jpg","66","","","TL","s","true","s","","","","","","","","","","",""
"image-keyboard-response","187","830417","0.0-2.0-11.0-0.85","2181.699999809265","","","stimuli/Set_1_rs/116b.jpg","67","","","TL","s","false","o","","","","","","","","","","",""
"image-keyboard-response","188","834921","0.0-2.0-11.0-0.86","1118.9000000953674","","","stimuli/Set_1_rs/122a.jpg","77","","","TF","n","true","n","","","","","","","","","","",""
"image-keyboard-response","189","839424","0.0-2.0-11.0-0.87","1575.5","","","stimuli/Set_1_rs/044a.jpg","67","","","TR","o","true","o","","","","","","","","","","",""
"image-keyboard-response","190","843927","0.0-2.0-11.0-0.88","1440","","","stimuli/Set_1_rs/049a.jpg","67","","","TR","o","true","o","","","","","","","","","","",""
"image-keyboard-response","191","848431","0.0-2.0-11.0-0.89","1224.8000001907349","","","stimuli/Set_1_rs/118a.jpg","67","","","TR","o","true","o","","","","","","","","","","",""
"image-keyboard-response","192","852934","0.0-2.0-11.0-0.90","1233.8000001907349","","","stimuli/Set_1_rs/040a.jpg","67","","","TR","o","true","o","","","","","","","","","","",""
"image-keyboard-response","193","857437","0.0-2.0-11.0-0.91","1322.0999999046326","","","stimuli/Set_1_rs/011b.jpg","67","","","TL","s","false","o","","","","","","","","","","",""
"image-keyboard-response","194","861941","0.0-2.0-11.0-0.92","1250.6000001430511","","","stimuli/Set_1_rs/087a.jpg","77","","","TF","n","true","n","","","","","","","","","","",""
"image-keyboard-response","195","866444","0.0-2.0-11.0-0.93","2107","","","stimuli/Set_1_rs/063a.jpg","66","","","TR","o","false","s","","","","","","","","","","",""
"image-keyboard-response","196","870947","0.0-2.0-11.0-0.94","1555.8999998569489","","","stimuli/Set_1_rs/098b.jpg","66","","","TL","s","true","s","","","","","","","","","","",""
"image-keyboard-response","197","875450","0.0-2.0-11.0-0.95","1788.7999999523163","","","stimuli/Set_1_rs/058a.jpg","66","","","TR","o","false","s","","","","","","","","","","",""
"html-keyboard-response","198","890178","0.0-3.0","14726.299999952316","","","<p>Vége a feladatnak. Köszönjük a részvételt!</p>","13","","","","","","","24","10","0","8","23","3","0","2","32","0.7058823529411765","0.6176470588235294"
