"trial_type","trial_index","time_elapsed","internal_node_id","rt","responses","success","stimulus","key_press","cond","enc_response","condition","correct_response","correct","rec_response","targ_old","targ_sim","targ_new","lure_old","lure_sim","lure_new","foil_old","foil_sim","foil_new","recognition_ratio","ldi"
"pavlovia","0","3","0.0-0.0","","","","","","","","","","","","","","","","","","","","","",""
"survey-multi-choice","1","9654","0.0-1.0","9647.099999904633","{""Q0"":""Igen"",""Q1"":""Igen""}","","","","","","","","","","","","","","","","","","","",""
"survey-text","2","19794","0.0-2.0-0.0","10137.60000038147","{""Q0"":""417089""}","","","","","","","","","","","","","","","","","","","",""
"fullscreen","3","22520","0.0-2.0-1.0","","","true","","","","","","","","","","","","","","","","","","",""
"html-keyboard-response","4","30097","0.0-2.0-2.0","7575.60000038147","","","<p>Üdvözöljük! Ez a feladat két részből áll, és összesen 10-15 percet vesz igénybe.</p>","13","","","","","","","","","","","","","","","","",""
"html-keyboard-response","5","67282","0.0-2.0-3.0-0.0","37183","","","<p>Az első részben tárgyakat lát majd a képernyőn, egymás után fognak megjelenni.<br>Az Ön feladata eldönteni, hogy a tárgyak <i>beltéri vagy kültéri</i> tárgyak-e.</p>						   <p>Amennyiben a tárgyat általában beltéren látja, nyomja le a <b>C</b> billentyűt. Amennyiben a tárgyat általában kültéren látja, nyomja le az <b>M</b> billentyűt.</p>						   <p>Ebben a feladatban nincsen mindig egyértelműen jó megoldás. Válaszoljon legjobb tudása szerint. A válaszadásra 2 másodperce lesz.","32","","","","","","","","","","","","","","","","",""
"html-keyboard-response","6","69284","0.0-2.0-3.0-1.0","null","","","<p>Kezdődik a gyakorlás...</p>","null","","","","","","","","","","","","","","","","",""
"image-keyboard-response","7","71287","0.0-2.0-4.0-0.0","1738.3000001907349","","","stimuli/Set_2_rs/165b.jpg","77","-","outdoor","","","","","","","","","","","","","","",""
"html-keyboard-response","8","74337","0.0-2.0-4.0-1.0","2547.5","","","<p>Az Ön válasza:</p><p>Kültéri.</p>","32","","","","","","","","","","","","","","","","",""
"image-keyboard-response","9","76340","0.0-2.0-4.0-0.1","1053.5999999046326","","","stimuli/Set_2_rs/034a.jpg","67","-","indoor","","","","","","","","","","","","","","",""
"html-keyboard-response","10","77857","0.0-2.0-4.0-1.1","1014.4000000953674","","","<p>Az Ön válasza:</p><p>Beltéri.</p>","32","","","","","","","","","","","","","","","","",""
"image-keyboard-response","11","79859","0.0-2.0-4.0-0.2","1278.1000003814697","","","stimuli/Set_2_rs/049a.jpg","77","SL","outdoor","","","","","","","","","","","","","","",""
"html-keyboard-response","12","81217","0.0-2.0-4.0-1.2","855.8000001907349","","","<p>Az Ön válasza:</p><p>Kültéri.</p>","32","","","","","","","","","","","","","","","","",""
"image-keyboard-response","13","83218","0.0-2.0-4.0-0.3","1118.5999999046326","","","stimuli/Set_2_rs/028a.jpg","67","SR","indoor","","","","","","","","","","","","","","",""
"html-keyboard-response","14","84625","0.0-2.0-4.0-1.3","904.7000002861023","","","<p>Az Ön válasza:</p><p>Beltéri.</p>","32","","","","","","","","","","","","","","","","",""
"image-keyboard-response","15","86627","0.0-2.0-4.0-0.4","1102.1999998092651","","","stimuli/Set_2_rs/135a.jpg","67","SL","indoor","","","","","","","","","","","","","","",""
"html-keyboard-response","16","87793","0.0-2.0-4.0-1.4","664.0999999046326","","","<p>Az Ön válasza:</p><p>Beltéri.</p>","32","","","","","","","","","","","","","","","","",""
"image-keyboard-response","17","89795","0.0-2.0-4.0-0.5","1422.4000000953674","","","stimuli/Set_2_rs/137a.jpg","67","SR","indoor","","","","","","","","","","","","","","",""
"html-keyboard-response","18","91089","0.0-2.0-4.0-1.5","791.3999996185303","","","<p>Az Ön válasza:</p><p>Beltéri.</p>","32","","","","","","","","","","","","","","","","",""
"html-keyboard-response","19","98481","0.0-2.0-5.0-0.0","7391.199999809265","","","<p>Ez volt a gyakorlás. A feladat következik. A feladat alatt már nem kap visszajelzést.</p>","32","","","","","","","","","","","","","","","","",""
"html-keyboard-response","20","100482","0.0-2.0-5.0-1.0","null","","","<p>Kezdődik a feladat...</p>","null","","","","","","","","","","","","","","","","",""
"image-keyboard-response","21","102985","0.0-2.0-6.0-0.0","1180.1999998092651","","","stimuli/Set_1_rs/157a.jpg","77","","outdoor","SR","","","","","","","","","","","","","",""
"image-keyboard-response","22","105487","0.0-2.0-6.0-0.1","1014.5","","","stimuli/Set_1_rs/009a.jpg","67","","indoor","SR","","","","","","","","","","","","","",""
"image-keyboard-response","23","107989","0.0-2.0-6.0-0.2","1504.5999999046326","","","stimuli/Set_1_rs/059a.jpg","67","","indoor","SL","","","","","","","","","","","","","",""
"image-keyboard-response","24","110490","0.0-2.0-6.0-0.3","1178.5","","","stimuli/Set_1_rs/024a.jpg","67","","indoor","SR","","","","","","","","","","","","","",""
"image-keyboard-response","25","112992","0.0-2.0-6.0-0.4","1268.5","","","stimuli/Set_1_rs/101a.jpg","77","","outdoor","SL","","","","","","","","","","","","","",""
"image-keyboard-response","26","115494","0.0-2.0-6.0-0.5","1310.7000002861023","","","stimuli/Set_1_rs/137a.jpg","77","","outdoor","SR","","","","","","","","","","","","","",""
"image-keyboard-response","27","117996","0.0-2.0-6.0-0.6","1528.8000001907349","","","stimuli/Set_1_rs/011a.jpg","77","","outdoor","SL","","","","","","","","","","","","","",""
"image-keyboard-response","28","120498","0.0-2.0-6.0-0.7","1027.2000002861023","","","stimuli/Set_1_rs/128a.jpg","67","","indoor","SL","","","","","","","","","","","","","",""
"image-keyboard-response","29","123001","0.0-2.0-6.0-0.8","1420.5999999046326","","","stimuli/Set_1_rs/083a.jpg","67","","indoor","SL","","","","","","","","","","","","","",""
"image-keyboard-response","30","125503","0.0-2.0-6.0-0.9","1110.2000002861023","","","stimuli/Set_1_rs/136a.jpg","67","","indoor","SR","","","","","","","","","","","","","",""
"image-keyboard-response","31","128005","0.0-2.0-6.0-0.10","1232.3000001907349","","","stimuli/Set_1_rs/103a.jpg","67","","indoor","SL","","","","","","","","","","","","","",""
"image-keyboard-response","32","130507","0.0-2.0-6.0-0.11","890","","","stimuli/Set_1_rs/086a.jpg","67","","indoor","SR","","","","","","","","","","","","","",""
"image-keyboard-response","33","133010","0.0-2.0-6.0-0.12","1235.2000002861023","","","stimuli/Set_1_rs/099a.jpg","67","","indoor","SL","","","","","","","","","","","","","",""
"image-keyboard-response","34","135512","0.0-2.0-6.0-0.13","1181.4000000953674","","","stimuli/Set_1_rs/178a.jpg","67","","indoor","SL","","","","","","","","","","","","","",""
"image-keyboard-response","35","138014","0.0-2.0-6.0-0.14","1255.0999999046326","","","stimuli/Set_1_rs/134a.jpg","67","","indoor","SL","","","","","","","","","","","","","",""
"image-keyboard-response","36","140516","0.0-2.0-6.0-0.15","1313","","","stimuli/Set_1_rs/156a.jpg","67","","indoor","SL","","","","","","","","","","","","","",""
"image-keyboard-response","37","143018","0.0-2.0-6.0-0.16","970.2999997138977","","","stimuli/Set_1_rs/054a.jpg","77","","outdoor","SR","","","","","","","","","","","","","",""
"image-keyboard-response","38","145521","0.0-2.0-6.0-0.17","1268.2999997138977","","","stimuli/Set_1_rs/092a.jpg","67","","indoor","SL","","","","","","","","","","","","","",""
"image-keyboard-response","39","148023","0.0-2.0-6.0-0.18","1630.0999999046326","","","stimuli/Set_1_rs/031a.jpg","67","","indoor","SL","","","","","","","","","","","","","",""
"image-keyboard-response","40","150524","0.0-2.0-6.0-0.19","1384.0999999046326","","","stimuli/Set_1_rs/013a.jpg","67","","indoor","SL","","","","","","","","","","","","","",""
"image-keyboard-response","41","153027","0.0-2.0-6.0-0.20","1409.6999998092651","","","stimuli/Set_1_rs/075a.jpg","67","","indoor","SL","","","","","","","","","","","","","",""
"image-keyboard-response","42","155528","0.0-2.0-6.0-0.21","1484","","","stimuli/Set_1_rs/150a.jpg","67","","indoor","SR","","","","","","","","","","","","","",""
"image-keyboard-response","43","158030","0.0-2.0-6.0-0.22","1014.3000001907349","","","stimuli/Set_1_rs/094a.jpg","67","","indoor","SL","","","","","","","","","","","","","",""
"image-keyboard-response","44","160532","0.0-2.0-6.0-0.23","960.7000002861023","","","stimuli/Set_1_rs/090a.jpg","77","","outdoor","SL","","","","","","","","","","","","","",""
"image-keyboard-response","45","163035","0.0-2.0-6.0-0.24","1177.3000001907349","","","stimuli/Set_1_rs/192a.jpg","67","","indoor","SR","","","","","","","","","","","","","",""
"image-keyboard-response","46","165537","0.0-2.0-6.0-0.25","1155.9000000953674","","","stimuli/Set_1_rs/116a.jpg","77","","outdoor","SL","","","","","","","","","","","","","",""
"image-keyboard-response","47","168038","0.0-2.0-6.0-0.26","1422","","","stimuli/Set_1_rs/044a.jpg","67","","indoor","SR","","","","","","","","","","","","","",""
"image-keyboard-response","48","170540","0.0-2.0-6.0-0.27","1240.1000003814697","","","stimuli/Set_1_rs/114a.jpg","67","","indoor","SL","","","","","","","","","","","","","",""
"image-keyboard-response","49","173044","0.0-2.0-6.0-0.28","1601.4000000953674","","","stimuli/Set_1_rs/112a.jpg","67","","indoor","SR","","","","","","","","","","","","","",""
"image-keyboard-response","50","175546","0.0-2.0-6.0-0.29","1594.0999999046326","","","stimuli/Set_1_rs/052a.jpg","77","","outdoor","SL","","","","","","","","","","","","","",""
"image-keyboard-response","51","178048","0.0-2.0-6.0-0.30","1620.3000001907349","","","stimuli/Set_1_rs/058a.jpg","67","","indoor","SR","","","","","","","","","","","","","",""
"image-keyboard-response","52","180550","0.0-2.0-6.0-0.31","1758.1999998092651","","","stimuli/Set_1_rs/023a.jpg","77","","outdoor","SL","","","","","","","","","","","","","",""
"image-keyboard-response","53","183053","0.0-2.0-6.0-0.32","1271.2999997138977","","","stimuli/Set_1_rs/030a.jpg","77","","outdoor","SR","","","","","","","","","","","","","",""
"image-keyboard-response","54","185554","0.0-2.0-6.0-0.33","1121.7999997138977","","","stimuli/Set_1_rs/091a.jpg","77","","outdoor","SR","","","","","","","","","","","","","",""
"image-keyboard-response","55","188056","0.0-2.0-6.0-0.34","1100","","","stimuli/Set_1_rs/147a.jpg","77","","outdoor","SR","","","","","","","","","","","","","",""
"image-keyboard-response","56","190559","0.0-2.0-6.0-0.35","966.4000000953674","","","stimuli/Set_1_rs/063a.jpg","67","","indoor","SR","","","","","","","","","","","","","",""
"image-keyboard-response","57","193061","0.0-2.0-6.0-0.36","1118.7999997138977","","","stimuli/Set_1_rs/040a.jpg","77","","outdoor","SR","","","","","","","","","","","","","",""
"image-keyboard-response","58","195563","0.0-2.0-6.0-0.37","1145.1999998092651","","","stimuli/Set_1_rs/038a.jpg","67","","indoor","SR","","","","","","","","","","","","","",""
"image-keyboard-response","59","198065","0.0-2.0-6.0-0.38","1458.9000000953674","","","stimuli/Set_1_rs/100a.jpg","67","","indoor","SL","","","","","","","","","","","","","",""
"image-keyboard-response","60","200566","0.0-2.0-6.0-0.39","1085.1999998092651","","","stimuli/Set_1_rs/109a.jpg","67","","indoor","SR","","","","","","","","","","","","","",""
"image-keyboard-response","61","203069","0.0-2.0-6.0-0.40","967.0999999046326","","","stimuli/Set_1_rs/191a.jpg","67","","indoor","SR","","","","","","","","","","","","","",""
"image-keyboard-response","62","205571","0.0-2.0-6.0-0.41","1473.3000001907349","","","stimuli/Set_1_rs/061a.jpg","67","","indoor","SL","","","","","","","","","","","","","",""
"image-keyboard-response","63","208074","0.0-2.0-6.0-0.42","1163.2000002861023","","","stimuli/Set_1_rs/162a.jpg","67","","indoor","SR","","","","","","","","","","","","","",""
"image-keyboard-response","64","210575","0.0-2.0-6.0-0.43","1156.5","","","stimuli/Set_1_rs/046a.jpg","67","","indoor","SR","","","","","","","","","","","","","",""
"image-keyboard-response","65","213078","0.0-2.0-6.0-0.44","1422.4000000953674","","","stimuli/Set_1_rs/155a.jpg","77","","outdoor","SL","","","","","","","","","","","","","",""
"image-keyboard-response","66","215580","0.0-2.0-6.0-0.45","1592.4000000953674","","","stimuli/Set_1_rs/010a.jpg","67","","indoor","SR","","","","","","","","","","","","","",""
"image-keyboard-response","67","218081","0.0-2.0-6.0-0.46","1298.3000001907349","","","stimuli/Set_1_rs/142a.jpg","67","","indoor","SR","","","","","","","","","","","","","",""
"image-keyboard-response","68","220583","0.0-2.0-6.0-0.47","1052.6000003814697","","","stimuli/Set_1_rs/045a.jpg","67","","indoor","SL","","","","","","","","","","","","","",""
"image-keyboard-response","69","223086","0.0-2.0-6.0-0.48","1413.9000000953674","","","stimuli/Set_1_rs/070a.jpg","67","","indoor","SR","","","","","","","","","","","","","",""
"image-keyboard-response","70","225588","0.0-2.0-6.0-0.49","1167.5","","","stimuli/Set_1_rs/022a.jpg","67","","indoor","SL","","","","","","","","","","","","","",""
"image-keyboard-response","71","228090","0.0-2.0-6.0-0.50","1017.6999998092651","","","stimuli/Set_1_rs/021a.jpg","67","","indoor","SR","","","","","","","","","","","","","",""
"image-keyboard-response","72","230592","0.0-2.0-6.0-0.51","884.0999999046326","","","stimuli/Set_1_rs/098a.jpg","67","","indoor","SL","","","","","","","","","","","","","",""
"image-keyboard-response","73","233095","0.0-2.0-6.0-0.52","716.9000000953674","","","stimuli/Set_1_rs/008a.jpg","67","","indoor","SL","","","","","","","","","","","","","",""
"image-keyboard-response","74","235597","0.0-2.0-6.0-0.53","1014.6999998092651","","","stimuli/Set_1_rs/012a.jpg","67","","indoor","SL","","","","","","","","","","","","","",""
"image-keyboard-response","75","238099","0.0-2.0-6.0-0.54","1072.5999999046326","","","stimuli/Set_1_rs/153a.jpg","67","","indoor","SR","","","","","","","","","","","","","",""
"image-keyboard-response","76","240602","0.0-2.0-6.0-0.55","1370.5","","","stimuli/Set_1_rs/068a.jpg","77","","outdoor","SL","","","","","","","","","","","","","",""
"image-keyboard-response","77","243105","0.0-2.0-6.0-0.56","867.1999998092651","","","stimuli/Set_1_rs/140a.jpg","67","","indoor","SL","","","","","","","","","","","","","",""
"image-keyboard-response","78","245607","0.0-2.0-6.0-0.57","1245.0999999046326","","","stimuli/Set_1_rs/029a.jpg","67","","indoor","SR","","","","","","","","","","","","","",""
"image-keyboard-response","79","248109","0.0-2.0-6.0-0.58","1094.5999999046326","","","stimuli/Set_1_rs/049a.jpg","77","","outdoor","SR","","","","","","","","","","","","","",""
"image-keyboard-response","80","250610","0.0-2.0-6.0-0.59","913.0999999046326","","","stimuli/Set_1_rs/180a.jpg","67","","indoor","SR","","","","","","","","","","","","","",""
"image-keyboard-response","81","253113","0.0-2.0-6.0-0.60","762.5999999046326","","","stimuli/Set_1_rs/033a.jpg","67","","indoor","SL","","","","","","","","","","","","","",""
"image-keyboard-response","82","255615","0.0-2.0-6.0-0.61","1460.5","","","stimuli/Set_1_rs/119a.jpg","77","","outdoor","SL","","","","","","","","","","","","","",""
"image-keyboard-response","83","258117","0.0-2.0-6.0-0.62","1086.1000003814697","","","stimuli/Set_1_rs/118a.jpg","77","","outdoor","SR","","","","","","","","","","","","","",""
"image-keyboard-response","84","260618","0.0-2.0-6.0-0.63","1176.8000001907349","","","stimuli/Set_1_rs/107a.jpg","77","","outdoor","SR","","","","","","","","","","","","","",""
"html-keyboard-response","85","268719","0.0-2.0-7.0","8099.599999904633","","","<p>Vége a feladat első részének. Tartson egy pár perces szünetet.</p>","32","","","","","","","","","","","","","","","","",""
"html-keyboard-response","86","302431","0.0-2.0-8.0-0.0","33710.90000009537","","","<p>A következőkben ismét tárgyak jelennek majd meg a képernyőn, egymás után.<br>Az Ön feladata eldönteni, látta-e már ezeket a tárgyakat a vizsgálat első felében.</p>		        			<p>Amennyiben pontosan ugyanezt a tárgyat látta (a tárgy <i>régi</i>), nyomja le a <b>C</b> billentyűt.</p>		        			<p>Amennyiben hasonló tárgyat látott (a tárgy <i>hasonló</i>), nyomja le a <b>B</b> billentyűt.</p>		        			<p>Amennyiben nem látta ezt a tárgyat az első részben (a tárgy <i>új</i>), nyomja le az <b>M</b> billentyűt.</p>","32","","","","","","","","","","","","","","","","",""
"html-keyboard-response","87","304433","0.0-2.0-8.0-1.0","null","","","<p>Kezdődik a gyakorlás...</p>","null","","","","","","","","","","","","","","","","",""
"image-keyboard-response","88","308435","0.0-2.0-9.0-0.0","2203.5","","","stimuli/Set_2_rs/049b.jpg","67","","","TL","l","false","o","","","","","","","","","","",""
"html-keyboard-response","89","311486","0.0-2.0-9.0-1.0","3048.7999997138977","","","<p>A helyes válasz: Hasonló.</p><p>Az Ön válasza: Régi.</p>","32","","","","","","","","","","","","","","","","",""
"image-keyboard-response","90","315488","0.0-2.0-9.0-0.1","1246.3000001907349","","","stimuli/Set_2_rs/018b.jpg","77","","","TF","n","true","n","","","","","","","","","","",""
"html-keyboard-response","91","316862","0.0-2.0-9.0-1.1","1372.0999999046326","","","<p>A helyes válasz: Új.</p><p>Az Ön válasza: Új.</p>","32","","","","","","","","","","","","","","","","",""
"image-keyboard-response","92","320864","0.0-2.0-9.0-0.2","1646.0999999046326","","","stimuli/Set_2_rs/028a.jpg","67","","","TR","o","true","o","","","","","","","","","","",""
"html-keyboard-response","93","322110","0.0-2.0-9.0-1.2","1244.1999998092651","","","<p>A helyes válasz: Régi.</p><p>Az Ön válasza: Régi.</p>","32","","","","","","","","","","","","","","","","",""
"image-keyboard-response","94","326112","0.0-2.0-9.0-0.3","2382","","","stimuli/Set_2_rs/137a.jpg","77","","","TR","o","false","n","","","","","","","","","","",""
"html-keyboard-response","95","327134","0.0-2.0-9.0-1.3","1020.1999998092651","","","<p>A helyes válasz: Régi.</p><p>Az Ön válasza: Új.</p>","32","","","","","","","","","","","","","","","","",""
"image-keyboard-response","96","331136","0.0-2.0-9.0-0.4","1645.9000000953674","","","stimuli/Set_2_rs/135b.jpg","67","","","TL","l","false","o","","","","","","","","","","",""
"html-keyboard-response","97","332526","0.0-2.0-9.0-1.4","1387.9000000953674","","","<p>A helyes válasz: Hasonló.</p><p>Az Ön válasza: Régi.</p>","32","","","","","","","","","","","","","","","","",""
"image-keyboard-response","98","336528","0.0-2.0-9.0-0.5","1117.8000001907349","","","stimuli/Set_2_rs/019a.jpg","77","","","TF","n","true","n","","","","","","","","","","",""
"html-keyboard-response","99","337470","0.0-2.0-9.0-1.5","940.5","","","<p>A helyes válasz: Új.</p><p>Az Ön válasza: Új.</p>","32","","","","","","","","","","","","","","","","",""
"html-keyboard-response","100","345821","0.0-2.0-10.0-0.0","8351.200000286102","","","<p>Ez volt a gyakorlás. A feladat következik. A feladat alatt már nem kap visszajelzést.</p>","32","","","","","","","","","","","","","","","","",""
"html-keyboard-response","101","347823","0.0-2.0-10.0-1.0","null","","","<p>Kezdődik a feladat...</p>","null","","","","","","","","","","","","","","","","",""
"image-keyboard-response","102","352326","0.0-2.0-11.0-0.0","1132.7000002861023","","","stimuli/Set_1_rs/181a.jpg","77","","","TF","n","true","n","","","","","","","","","","",""
"image-keyboard-response","103","356829","0.0-2.0-11.0-0.1","932.9000000953674","","","stimuli/Set_1_rs/152a.jpg","77","","","TF","n","true","n","","","","","","","","","","",""
"image-keyboard-response","104","361332","0.0-2.0-11.0-0.2","1646.5999999046326","","","stimuli/Set_1_rs/090b.jpg","66","","","TL","s","true","s","","","","","","","","","","",""
"image-keyboard-response","105","365834","0.0-2.0-11.0-0.3","1095.9000000953674","","","stimuli/Set_1_rs/126a.jpg","77","","","TF","n","true","n","","","","","","","","","","",""
"image-keyboard-response","106","370337","0.0-2.0-11.0-0.4","2193.4000000953674","","","stimuli/Set_1_rs/068b.jpg","66","","","TL","s","true","s","","","","","","","","","","",""
"image-keyboard-response","107","374839","0.0-2.0-11.0-0.5","1370.5999999046326","","","stimuli/Set_1_rs/054a.jpg","67","","","TR","o","true","o","","","","","","","","","","",""
"image-keyboard-response","108","379342","0.0-2.0-11.0-0.6","1284.0999999046326","","","stimuli/Set_1_rs/162a.jpg","67","","","TR","o","true","o","","","","","","","","","","",""
"image-keyboard-response","109","383846","0.0-2.0-11.0-0.7","1309.0999999046326","","","stimuli/Set_1_rs/019a.jpg","77","","","TF","n","true","n","","","","","","","","","","",""
"image-keyboard-response","110","388349","0.0-2.0-11.0-0.8","2149.300000190735","","","stimuli/Set_1_rs/119b.jpg","66","","","TL","s","true","s","","","","","","","","","","",""
"image-keyboard-response","111","392852","0.0-2.0-11.0-0.9","1662.5999999046326","","","stimuli/Set_1_rs/052b.jpg","66","","","TL","s","true","s","","","","","","","","","","",""
"image-keyboard-response","112","397354","0.0-2.0-11.0-0.10","1191.3000001907349","","","stimuli/Set_1_rs/135a.jpg","77","","","TF","n","true","n","","","","","","","","","","",""
"image-keyboard-response","113","401858","0.0-2.0-11.0-0.11","1472.4000000953674","","","stimuli/Set_1_rs/004a.jpg","77","","","TF","n","true","n","","","","","","","","","","",""
"image-keyboard-response","114","406361","0.0-2.0-11.0-0.12","1401.1000003814697","","","stimuli/Set_1_rs/072a.jpg","77","","","TF","n","true","n","","","","","","","","","","",""
"image-keyboard-response","115","410864","0.0-2.0-11.0-0.13","1169.2999997138977","","","stimuli/Set_1_rs/028a.jpg","77","","","TF","n","true","n","","","","","","","","","","",""
"image-keyboard-response","116","415366","0.0-2.0-11.0-0.14","1754.6999998092651","","","stimuli/Set_1_rs/091a.jpg","67","","","TR","o","true","o","","","","","","","","","","",""
"image-keyboard-response","117","419869","0.0-2.0-11.0-0.15","1012.1999998092651","","","stimuli/Set_1_rs/108a.jpg","77","","","TF","n","true","n","","","","","","","","","","",""
"image-keyboard-response","118","424373","0.0-2.0-11.0-0.16","2492.9000000953674","","","stimuli/Set_1_rs/146a.jpg","77","","","TF","n","true","n","","","","","","","","","","",""
"image-keyboard-response","119","428876","0.0-2.0-11.0-0.17","1621.5","","","stimuli/Set_1_rs/013b.jpg","66","","","TL","s","true","s","","","","","","","","","","",""
"image-keyboard-response","120","433378","0.0-2.0-11.0-0.18","1134.9000000953674","","","stimuli/Set_1_rs/141a.jpg","77","","","TF","n","true","n","","","","","","","","","","",""
"image-keyboard-response","121","437882","0.0-2.0-11.0-0.19","2103.7000002861023","","","stimuli/Set_1_rs/156b.jpg","67","","","TL","s","false","o","","","","","","","","","","",""
"image-keyboard-response","122","442386","0.0-2.0-11.0-0.20","1312.1000003814697","","","stimuli/Set_1_rs/024a.jpg","67","","","TR","o","true","o","","","","","","","","","","",""
"image-keyboard-response","123","446889","0.0-2.0-11.0-0.21","1944.7000002861023","","","stimuli/Set_1_rs/046a.jpg","67","","","TR","o","true","o","","","","","","","","","","",""
"image-keyboard-response","124","451392","0.0-2.0-11.0-0.22","1585.2999997138977","","","stimuli/Set_1_rs/100b.jpg","67","","","TL","s","false","o","","","","","","","","","","",""
"image-keyboard-response","125","455894","0.0-2.0-11.0-0.23","1546.9000000953674","","","stimuli/Set_1_rs/080a.jpg","77","","","TF","n","true","n","","","","","","","","","","",""
"image-keyboard-response","126","460397","0.0-2.0-11.0-0.24","2244.2999997138977","","","stimuli/Set_1_rs/094b.jpg","66","","","TL","s","true","s","","","","","","","","","","",""
"image-keyboard-response","127","464899","0.0-2.0-11.0-0.25","1277.5999999046326","","","stimuli/Set_1_rs/190a.jpg","77","","","TF","n","true","n","","","","","","","","","","",""
"image-keyboard-response","128","469402","0.0-2.0-11.0-0.26","1367.4000000953674","","","stimuli/Set_1_rs/137a.jpg","67","","","TR","o","true","o","","","","","","","","","","",""
"image-keyboard-response","129","473905","0.0-2.0-11.0-0.27","1296.3000001907349","","","stimuli/Set_1_rs/180a.jpg","67","","","TR","o","true","o","","","","","","","","","","",""
"image-keyboard-response","130","478408","0.0-2.0-11.0-0.28","1881","","","stimuli/Set_1_rs/134b.jpg","66","","","TL","s","true","s","","","","","","","","","","",""
"image-keyboard-response","131","482912","0.0-2.0-11.0-0.29","1393.5","","","stimuli/Set_1_rs/088a.jpg","77","","","TF","n","true","n","","","","","","","","","","",""
"image-keyboard-response","132","487415","0.0-2.0-11.0-0.30","1385.8000001907349","","","stimuli/Set_1_rs/165a.jpg","77","","","TF","n","true","n","","","","","","","","","","",""
"image-keyboard-response","133","491918","0.0-2.0-11.0-0.31","2946.7000002861023","","","stimuli/Set_1_rs/075b.jpg","66","","","TL","s","true","s","","","","","","","","","","",""
"image-keyboard-response","134","496422","0.0-2.0-11.0-0.32","2395.5","","","stimuli/Set_1_rs/191a.jpg","66","","","TR","o","false","s","","","","","","","","","","",""
"image-keyboard-response","135","500924","0.0-2.0-11.0-0.33","1332.1999998092651","","","stimuli/Set_1_rs/112a.jpg","66","","","TR","o","false","s","","","","","","","","","","",""
"image-keyboard-response","136","505427","0.0-2.0-11.0-0.34","1293.6999998092651","","","stimuli/Set_1_rs/171a.jpg","77","","","TF","n","true","n","","","","","","","","","","",""
"image-keyboard-response","137","509930","0.0-2.0-11.0-0.35","1174.9000000953674","","","stimuli/Set_1_rs/021a.jpg","67","","","TR","o","true","o","","","","","","","","","","",""
"image-keyboard-response","138","514433","0.0-2.0-11.0-0.36","1215.5","","","stimuli/Set_1_rs/157a.jpg","67","","","TR","o","true","o","","","","","","","","","","",""
"image-keyboard-response","139","518937","0.0-2.0-11.0-0.37","2135.9000000953674","","","stimuli/Set_1_rs/059b.jpg","67","","","TL","s","false","o","","","","","","","","","","",""
"image-keyboard-response","140","523440","0.0-2.0-11.0-0.38","1152.4000000953674","","","stimuli/Set_1_rs/153a.jpg","67","","","TR","o","true","o","","","","","","","","","","",""
"image-keyboard-response","141","527943","0.0-2.0-11.0-0.39","1512.9000000953674","","","stimuli/Set_1_rs/002a.jpg","77","","","TF","n","true","n","","","","","","","","","","",""
"image-keyboard-response","142","532446","0.0-2.0-11.0-0.40","1234.4000000953674","","","stimuli/Set_1_rs/041a.jpg","77","","","TF","n","true","n","","","","","","","","","","",""
"image-keyboard-response","143","536949","0.0-2.0-11.0-0.41","2267.300000190735","","","stimuli/Set_1_rs/012b.jpg","66","","","TL","s","true","s","","","","","","","","","","",""
"image-keyboard-response","144","541452","0.0-2.0-11.0-0.42","2676.199999809265","","","stimuli/Set_1_rs/083b.jpg","66","","","TL","s","true","s","","","","","","","","","","",""
"image-keyboard-response","145","545956","0.0-2.0-11.0-0.43","1405","","","stimuli/Set_1_rs/051a.jpg","77","","","TF","n","true","n","","","","","","","","","","",""
"image-keyboard-response","146","550459","0.0-2.0-11.0-0.44","1109.1999998092651","","","stimuli/Set_1_rs/168a.jpg","77","","","TF","n","true","n","","","","","","","","","","",""
"image-keyboard-response","147","554962","0.0-2.0-11.0-0.45","1821.7999997138977","","","stimuli/Set_1_rs/155b.jpg","66","","","TL","s","true","s","","","","","","","","","","",""
"image-keyboard-response","148","559465","0.0-2.0-11.0-0.46","1894.7000002861023","","","stimuli/Set_1_rs/045b.jpg","66","","","TL","s","true","s","","","","","","","","","","",""
"image-keyboard-response","149","563968","0.0-2.0-11.0-0.47","1999.5999999046326","","","stimuli/Set_1_rs/031b.jpg","66","","","TL","s","true","s","","","","","","","","","","",""
"image-keyboard-response","150","568471","0.0-2.0-11.0-0.48","1608.5","","","stimuli/Set_1_rs/136a.jpg","67","","","TR","o","true","o","","","","","","","","","","",""
"image-keyboard-response","151","572974","0.0-2.0-11.0-0.49","2145.800000190735","","","stimuli/Set_1_rs/053a.jpg","77","","","TF","n","true","n","","","","","","","","","","",""
"image-keyboard-response","152","577477","0.0-2.0-11.0-0.50","1739","","","stimuli/Set_1_rs/061b.jpg","66","","","TL","s","true","s","","","","","","","","","","",""
"image-keyboard-response","153","581980","0.0-2.0-11.0-0.51","963.0999999046326","","","stimuli/Set_1_rs/062a.jpg","77","","","TF","n","true","n","","","","","","","","","","",""
"image-keyboard-response","154","586484","0.0-2.0-11.0-0.52","1772.1999998092651","","","stimuli/Set_1_rs/009a.jpg","66","","","TR","o","false","s","","","","","","","","","","",""
"image-keyboard-response","155","590987","0.0-2.0-11.0-0.53","2484.3999996185303","","","stimuli/Set_1_rs/099b.jpg","66","","","TL","s","true","s","","","","","","","","","","",""
"image-keyboard-response","156","595491","0.0-2.0-11.0-0.54","2653.0999999046326","","","stimuli/Set_1_rs/030a.jpg","66","","","TR","o","false","s","","","","","","","","","","",""
"image-keyboard-response","157","599994","0.0-2.0-11.0-0.55","1525.6999998092651","","","stimuli/Set_1_rs/029a.jpg","67","","","TR","o","true","o","","","","","","","","","","",""
"image-keyboard-response","158","604496","0.0-2.0-11.0-0.56","2846.7999997138977","","","stimuli/Set_1_rs/140b.jpg","66","","","TL","s","true","s","","","","","","","","","","",""
"image-keyboard-response","159","608999","0.0-2.0-11.0-0.57","1335.9000000953674","","","stimuli/Set_1_rs/182a.jpg","77","","","TF","n","true","n","","","","","","","","","","",""
"image-keyboard-response","160","613502","0.0-2.0-11.0-0.58","1440.5999999046326","","","stimuli/Set_1_rs/151a.jpg","77","","","TF","n","true","n","","","","","","","","","","",""
"image-keyboard-response","161","618005","0.0-2.0-11.0-0.59","1753.9000000953674","","","stimuli/Set_1_rs/142a.jpg","66","","","TR","o","false","s","","","","","","","","","","",""
"image-keyboard-response","162","622508","0.0-2.0-11.0-0.60","1699.2000002861023","","","stimuli/Set_1_rs/070a.jpg","67","","","TR","o","true","o","","","","","","","","","","",""
"image-keyboard-response","163","627012","0.0-2.0-11.0-0.61","1276.1999998092651","","","stimuli/Set_1_rs/121a.jpg","77","","","TF","n","true","n","","","","","","","","","","",""
"image-keyboard-response","164","631515","0.0-2.0-11.0-0.62","2036.4000000953674","","","stimuli/Set_1_rs/008b.jpg","66","","","TL","s","true","s","","","","","","","","","","",""
"image-keyboard-response","165","636018","0.0-2.0-11.0-0.63","2236.9000000953674","","","stimuli/Set_1_rs/092b.jpg","66","","","TL","s","true","s","","","","","","","","","","",""
"image-keyboard-response","166","640521","0.0-2.0-11.0-0.64","2022","","","stimuli/Set_1_rs/192a.jpg","67","","","TR","o","true","o","","","","","","","","","","",""
"image-keyboard-response","167","645024","0.0-2.0-11.0-0.65","1471.0999999046326","","","stimuli/Set_1_rs/147a.jpg","67","","","TR","o","true","o","","","","","","","","","","",""
"image-keyboard-response","168","649527","0.0-2.0-11.0-0.66","1591.9000000953674","","","stimuli/Set_1_rs/032a.jpg","77","","","TF","n","true","n","","","","","","","","","","",""
"image-keyboard-response","169","654030","0.0-2.0-11.0-0.67","1984.7000002861023","","","stimuli/Set_1_rs/128b.jpg","66","","","TL","s","true","s","","","","","","","","","","",""
"image-keyboard-response","170","658532","0.0-2.0-11.0-0.68","986.2000002861023","","","stimuli/Set_1_rs/186a.jpg","77","","","TF","n","true","n","","","","","","","","","","",""
"image-keyboard-response","171","663036","0.0-2.0-11.0-0.69","1219.5","","","stimuli/Set_1_rs/109a.jpg","67","","","TR","o","true","o","","","","","","","","","","",""
"image-keyboard-response","172","667539","0.0-2.0-11.0-0.70","1772.0999999046326","","","stimuli/Set_1_rs/160a.jpg","77","","","TF","n","true","n","","","","","","","","","","",""
"image-keyboard-response","173","672042","0.0-2.0-11.0-0.71","1828.7000002861023","","","stimuli/Set_1_rs/086a.jpg","66","","","TR","o","false","s","","","","","","","","","","",""
"image-keyboard-response","174","676545","0.0-2.0-11.0-0.72","2045.3999996185303","","","stimuli/Set_1_rs/023b.jpg","67","","","TL","s","false","o","","","","","","","","","","",""
"image-keyboard-response","175","681048","0.0-2.0-11.0-0.73","1926.5999999046326","","","stimuli/Set_1_rs/114b.jpg","66","","","TL","s","true","s","","","","","","","","","","",""
"image-keyboard-response","176","685551","0.0-2.0-11.0-0.74","1839.9000000953674","","","stimuli/Set_1_rs/033b.jpg","66","","","TL","s","true","s","","","","","","","","","","",""
"image-keyboard-response","177","690054","0.0-2.0-11.0-0.75","1768.5","","","stimuli/Set_1_rs/010a.jpg","67","","","TR","o","true","o","","","","","","","","","","",""
"image-keyboard-response","178","694558","0.0-2.0-11.0-0.76","1697","","","stimuli/Set_1_rs/150a.jpg","67","","","TR","o","true","o","","","","","","","","","","",""
"image-keyboard-response","179","699061","0.0-2.0-11.0-0.77","1481.5999999046326","","","stimuli/Set_1_rs/038a.jpg","67","","","TR","o","true","o","","","","","","","","","","",""
"image-keyboard-response","180","703563","0.0-2.0-11.0-0.78","1906.6000003814697","","","stimuli/Set_1_rs/022b.jpg","66","","","TL","s","true","s","","","","","","","","","","",""
"image-keyboard-response","181","708067","0.0-2.0-11.0-0.79","1564.3000001907349","","","stimuli/Set_1_rs/018a.jpg","77","","","TF","n","true","n","","","","","","","","","","",""
"image-keyboard-response","182","712570","0.0-2.0-11.0-0.80","1396.6000003814697","","","stimuli/Set_1_rs/081a.jpg","77","","","TF","n","true","n","","","","","","","","","","",""
"image-keyboard-response","183","717072","0.0-2.0-11.0-0.81","2062","","","stimuli/Set_1_rs/107a.jpg","66","","","TR","o","false","s","","","","","","","","","","",""
"image-keyboard-response","184","721575","0.0-2.0-11.0-0.82","1494.5999999046326","","","stimuli/Set_1_rs/101b.jpg","67","","","TL","s","false","o","","","","","","","","","","",""
"image-keyboard-response","185","726078","0.0-2.0-11.0-0.83","2400","","","stimuli/Set_1_rs/178b.jpg","66","","","TL","s","true","s","","","","","","","","","","",""
"image-keyboard-response","186","730581","0.0-2.0-11.0-0.84","2664.9000000953674","","","stimuli/Set_1_rs/103b.jpg","66","","","TL","s","true","s","","","","","","","","","","",""
"image-keyboard-response","187","735084","0.0-2.0-11.0-0.85","2802.2000002861023","","","stimuli/Set_1_rs/116b.jpg","66","","","TL","s","true","s","","","","","","","","","","",""
"image-keyboard-response","188","739587","0.0-2.0-11.0-0.86","1467.4000000953674","","","stimuli/Set_1_rs/122a.jpg","77","","","TF","n","true","n","","","","","","","","","","",""
"image-keyboard-response","189","744090","0.0-2.0-11.0-0.87","1748","","","stimuli/Set_1_rs/044a.jpg","66","","","TR","o","false","s","","","","","","","","","","",""
"image-keyboard-response","190","748593","0.0-2.0-11.0-0.88","2605.0999999046326","","","stimuli/Set_1_rs/049a.jpg","66","","","TR","o","false","s","","","","","","","","","","",""
"image-keyboard-response","191","753096","0.0-2.0-11.0-0.89","1573.9000000953674","","","stimuli/Set_1_rs/118a.jpg","67","","","TR","o","true","o","","","","","","","","","","",""
"image-keyboard-response","192","757599","0.0-2.0-11.0-0.90","1726.7999997138977","","","stimuli/Set_1_rs/040a.jpg","66","","","TR","o","false","s","","","","","","","","","","",""
"image-keyboard-response","193","762103","0.0-2.0-11.0-0.91","1591.8000001907349","","","stimuli/Set_1_rs/011b.jpg","66","","","TL","s","true","s","","","","","","","","","","",""
"image-keyboard-response","194","766606","0.0-2.0-11.0-0.92","1359.5","","","stimuli/Set_1_rs/087a.jpg","77","","","TF","n","true","n","","","","","","","","","","",""
"image-keyboard-response","195","771109","0.0-2.0-11.0-0.93","1720.4000000953674","","","stimuli/Set_1_rs/063a.jpg","67","","","TR","o","true","o","","","","","","","","","","",""
"image-keyboard-response","196","775612","0.0-2.0-11.0-0.94","2785.7999997138977","","","stimuli/Set_1_rs/098b.jpg","66","","","TL","s","true","s","","","","","","","","","","",""
"image-keyboard-response","197","780115","0.0-2.0-11.0-0.95","1946.6999998092651","","","stimuli/Set_1_rs/058a.jpg","67","","","TR","o","true","o","","","","","","","","","","",""
"html-keyboard-response","198","791033","0.0-3.0","10916.099999904633","","","<p>Vége a feladatnak. Köszönjük a részvételt!</p>","32","","","","","","","23","10","1","7","27","0","0","0","34","0.6764705882352942","0.7941176470588235"
