"trial_type","trial_index","time_elapsed","internal_node_id","rt","responses","success","stimulus","key_press","cond","enc_response","condition","correct_response","correct","rec_response","targ_old","targ_sim","targ_new","lure_old","lure_sim","lure_new","foil_old","foil_sim","foil_new","recognition_ratio","ldi"
"pavlovia","0","11","0.0-0.0","","","","","","","","","","","","","","","","","","","","","",""
"survey-multi-choice","1","12507","0.0-1.0","12490.5","{""Q0"":""Igen"",""Q1"":""Igen""}","","","","","","","","","","","","","","","","","","","",""
"survey-text","2","25501","0.0-2.0-0.0","12988.099999904633","{""Q0"":""681251""}","","","","","","","","","","","","","","","","","","","",""
"fullscreen","3","28521","0.0-2.0-1.0","","","true","","","","","","","","","","","","","","","","","","",""
"html-keyboard-response","4","39766","0.0-2.0-2.0","11242.699999809265","","","<p>Üdvözöljük! Ez a feladat két részből áll, és összesen 10-15 percet vesz igénybe.</p>","32","","","","","","","","","","","","","","","","",""
"html-keyboard-response","5","63749","0.0-2.0-3.0-0.0","23980.10000038147","","","<p>Az első részben tárgyakat lát majd a képernyőn, egymás után fognak megjelenni.<br>Az Ön feladata eldönteni, hogy a tárgyak <i>beltéri vagy kültéri</i> tárgyak-e.</p>						   <p>Amennyiben a tárgyat általában beltéren látja, nyomja le a <b>C</b> billentyűt. Amennyiben a tárgyat általában kültéren látja, nyomja le az <b>M</b> billentyűt.</p>						   <p>Ebben a feladatban nincsen mindig egyértelműen jó megoldás. Válaszoljon legjobb tudása szerint. A válaszadásra 2 másodperce lesz.","32","","","","","","","","","","","","","","","","",""
"html-keyboard-response","6","65752","0.0-2.0-3.0-1.0","null","","","<p>Kezdődik a gyakorlás...</p>","null","","","","","","","","","","","","","","","","",""
"image-keyboard-response","7","67757","0.0-2.0-4.0-0.0","1177","","","stimuli/Set_2_rs/165b.jpg","77","-","outdoor","","","","","","","","","","","","","","",""
"html-keyboard-response","8","70532","0.0-2.0-4.0-1.0","2272.2000002861023","","","<p>Az Ön válasza:</p><p>Kültéri.</p>","32","","","","","","","","","","","","","","","","",""
"image-keyboard-response","9","72537","0.0-2.0-4.0-0.1","1196.7000002861023","","","stimuli/Set_2_rs/034a.jpg","67","-","indoor","","","","","","","","","","","","","","",""
"html-keyboard-response","10","74773","0.0-2.0-4.0-1.1","1733.0999999046326","","","<p>Az Ön válasza:</p><p>Beltéri.</p>","32","","","","","","","","","","","","","","","","",""
"image-keyboard-response","11","76777","0.0-2.0-4.0-0.2","1149.2000002861023","","","stimuli/Set_2_rs/049a.jpg","77","SL","outdoor","","","","","","","","","","","","","","",""
"html-keyboard-response","12","78740","0.0-2.0-4.0-1.2","1459.8000001907349","","","<p>Az Ön válasza:</p><p>Kültéri.</p>","32","","","","","","","","","","","","","","","","",""
"image-keyboard-response","13","80742","0.0-2.0-4.0-0.3","1262","","","stimuli/Set_2_rs/028a.jpg","67","SR","indoor","","","","","","","","","","","","","","",""
"html-keyboard-response","14","83508","0.0-2.0-4.0-1.3","2263.0999999046326","","","<p>Az Ön válasza:</p><p>Beltéri.</p>","32","","","","","","","","","","","","","","","","",""
"image-keyboard-response","15","85511","0.0-2.0-4.0-0.4","1246.0999999046326","","","stimuli/Set_2_rs/135a.jpg","67","SL","indoor","","","","","","","","","","","","","","",""
"html-keyboard-response","16","87861","0.0-2.0-4.0-1.4","1847.8000001907349","","","<p>Az Ön válasza:</p><p>Beltéri.</p>","32","","","","","","","","","","","","","","","","",""
"image-keyboard-response","17","89863","0.0-2.0-4.0-0.5","1118","","","stimuli/Set_2_rs/137a.jpg","67","SR","indoor","","","","","","","","","","","","","","",""
"html-keyboard-response","18","91780","0.0-2.0-4.0-1.5","1414.7999997138977","","","<p>Az Ön válasza:</p><p>Beltéri.</p>","32","","","","","","","","","","","","","","","","",""
"html-keyboard-response","19","100516","0.0-2.0-5.0-0.0","8735","","","<p>Ez volt a gyakorlás. A feladat következik. A feladat alatt már nem kap visszajelzést.</p>","32","","","","","","","","","","","","","","","","",""
"html-keyboard-response","20","102518","0.0-2.0-5.0-1.0","null","","","<p>Kezdődik a feladat...</p>","null","","","","","","","","","","","","","","","","",""
"image-keyboard-response","21","105020","0.0-2.0-6.0-0.0","1484.3000001907349","","","stimuli/Set_1_rs/157a.jpg","77","","outdoor","SR","","","","","","","","","","","","","",""
"image-keyboard-response","22","107523","0.0-2.0-6.0-0.1","1094.5999999046326","","","stimuli/Set_1_rs/009a.jpg","67","","indoor","SR","","","","","","","","","","","","","",""
"image-keyboard-response","23","110025","0.0-2.0-6.0-0.2","1296","","","stimuli/Set_1_rs/059a.jpg","67","","indoor","SL","","","","","","","","","","","","","",""
"image-keyboard-response","24","112527","0.0-2.0-6.0-0.3","1577.9000000953674","","","stimuli/Set_1_rs/024a.jpg","67","","indoor","SR","","","","","","","","","","","","","",""
"image-keyboard-response","25","115029","0.0-2.0-6.0-0.4","1043.2000002861023","","","stimuli/Set_1_rs/101a.jpg","67","","indoor","SL","","","","","","","","","","","","","",""
"image-keyboard-response","26","117532","0.0-2.0-6.0-0.5","989.2000002861023","","","stimuli/Set_1_rs/137a.jpg","77","","outdoor","SR","","","","","","","","","","","","","",""
"image-keyboard-response","27","120034","0.0-2.0-6.0-0.6","1238.6000003814697","","","stimuli/Set_1_rs/011a.jpg","77","","outdoor","SL","","","","","","","","","","","","","",""
"image-keyboard-response","28","122535","0.0-2.0-6.0-0.7","1105","","","stimuli/Set_1_rs/128a.jpg","67","","indoor","SL","","","","","","","","","","","","","",""
"image-keyboard-response","29","125038","0.0-2.0-6.0-0.8","1066.7000002861023","","","stimuli/Set_1_rs/083a.jpg","67","","indoor","SL","","","","","","","","","","","","","",""
"image-keyboard-response","30","127541","0.0-2.0-6.0-0.9","1108.0999999046326","","","stimuli/Set_1_rs/136a.jpg","67","","indoor","SR","","","","","","","","","","","","","",""
"image-keyboard-response","31","130042","0.0-2.0-6.0-0.10","894","","","stimuli/Set_1_rs/103a.jpg","67","","indoor","SL","","","","","","","","","","","","","",""
"image-keyboard-response","32","132545","0.0-2.0-6.0-0.11","856.3999996185303","","","stimuli/Set_1_rs/086a.jpg","67","","indoor","SR","","","","","","","","","","","","","",""
"image-keyboard-response","33","135047","0.0-2.0-6.0-0.12","945","","","stimuli/Set_1_rs/099a.jpg","67","","indoor","SL","","","","","","","","","","","","","",""
"image-keyboard-response","34","137549","0.0-2.0-6.0-0.13","907.3000001907349","","","stimuli/Set_1_rs/178a.jpg","67","","indoor","SL","","","","","","","","","","","","","",""
"image-keyboard-response","35","140051","0.0-2.0-6.0-0.14","965.5999999046326","","","stimuli/Set_1_rs/134a.jpg","67","","indoor","SL","","","","","","","","","","","","","",""
"image-keyboard-response","36","142553","0.0-2.0-6.0-0.15","895.5","","","stimuli/Set_1_rs/156a.jpg","67","","indoor","SL","","","","","","","","","","","","","",""
"image-keyboard-response","37","145057","0.0-2.0-6.0-0.16","776.6999998092651","","","stimuli/Set_1_rs/054a.jpg","77","","outdoor","SR","","","","","","","","","","","","","",""
"image-keyboard-response","38","147559","0.0-2.0-6.0-0.17","1521.6999998092651","","","stimuli/Set_1_rs/092a.jpg","77","","outdoor","SL","","","","","","","","","","","","","",""
"image-keyboard-response","39","150061","0.0-2.0-6.0-0.18","1051.5999999046326","","","stimuli/Set_1_rs/031a.jpg","67","","indoor","SL","","","","","","","","","","","","","",""
"image-keyboard-response","40","152563","0.0-2.0-6.0-0.19","1141.4000000953674","","","stimuli/Set_1_rs/013a.jpg","67","","indoor","SL","","","","","","","","","","","","","",""
"image-keyboard-response","41","155066","0.0-2.0-6.0-0.20","1006.7000002861023","","","stimuli/Set_1_rs/075a.jpg","67","","indoor","SL","","","","","","","","","","","","","",""
"image-keyboard-response","42","157569","0.0-2.0-6.0-0.21","1240.4000000953674","","","stimuli/Set_1_rs/150a.jpg","67","","indoor","SR","","","","","","","","","","","","","",""
"image-keyboard-response","43","160072","0.0-2.0-6.0-0.22","833.3000001907349","","","stimuli/Set_1_rs/094a.jpg","67","","indoor","SL","","","","","","","","","","","","","",""
"image-keyboard-response","44","162575","0.0-2.0-6.0-0.23","986","","","stimuli/Set_1_rs/090a.jpg","77","","outdoor","SL","","","","","","","","","","","","","",""
"image-keyboard-response","45","165078","0.0-2.0-6.0-0.24","1090.2000002861023","","","stimuli/Set_1_rs/192a.jpg","67","","indoor","SR","","","","","","","","","","","","","",""
"image-keyboard-response","46","167581","0.0-2.0-6.0-0.25","843.9000000953674","","","stimuli/Set_1_rs/116a.jpg","67","","indoor","SL","","","","","","","","","","","","","",""
"image-keyboard-response","47","170082","0.0-2.0-6.0-0.26","1413.5999999046326","","","stimuli/Set_1_rs/044a.jpg","67","","indoor","SR","","","","","","","","","","","","","",""
"image-keyboard-response","48","172585","0.0-2.0-6.0-0.27","863.6999998092651","","","stimuli/Set_1_rs/114a.jpg","67","","indoor","SL","","","","","","","","","","","","","",""
"image-keyboard-response","49","175088","0.0-2.0-6.0-0.28","920.5999999046326","","","stimuli/Set_1_rs/112a.jpg","67","","indoor","SR","","","","","","","","","","","","","",""
"image-keyboard-response","50","177590","0.0-2.0-6.0-0.29","1249.6999998092651","","","stimuli/Set_1_rs/052a.jpg","67","","indoor","SL","","","","","","","","","","","","","",""
"image-keyboard-response","51","180092","0.0-2.0-6.0-0.30","1051.6999998092651","","","stimuli/Set_1_rs/058a.jpg","67","","indoor","SR","","","","","","","","","","","","","",""
"image-keyboard-response","52","182595","0.0-2.0-6.0-0.31","1206","","","stimuli/Set_1_rs/023a.jpg","77","","outdoor","SL","","","","","","","","","","","","","",""
"image-keyboard-response","53","185097","0.0-2.0-6.0-0.32","1134.5","","","stimuli/Set_1_rs/030a.jpg","77","","outdoor","SR","","","","","","","","","","","","","",""
"image-keyboard-response","54","187598","0.0-2.0-6.0-0.33","1097.0999999046326","","","stimuli/Set_1_rs/091a.jpg","67","","indoor","SR","","","","","","","","","","","","","",""
"image-keyboard-response","55","190100","0.0-2.0-6.0-0.34","1363.5","","","stimuli/Set_1_rs/147a.jpg","77","","outdoor","SR","","","","","","","","","","","","","",""
"image-keyboard-response","56","192602","0.0-2.0-6.0-0.35","1517.9000000953674","","","stimuli/Set_1_rs/063a.jpg","77","","outdoor","SR","","","","","","","","","","","","","",""
"image-keyboard-response","57","195104","0.0-2.0-6.0-0.36","1159","","","stimuli/Set_1_rs/040a.jpg","77","","outdoor","SR","","","","","","","","","","","","","",""
"image-keyboard-response","58","197607","0.0-2.0-6.0-0.37","977.4000000953674","","","stimuli/Set_1_rs/038a.jpg","67","","indoor","SR","","","","","","","","","","","","","",""
"image-keyboard-response","59","200110","0.0-2.0-6.0-0.38","1098.9000000953674","","","stimuli/Set_1_rs/100a.jpg","67","","indoor","SL","","","","","","","","","","","","","",""
"image-keyboard-response","60","202612","0.0-2.0-6.0-0.39","1027.9000000953674","","","stimuli/Set_1_rs/109a.jpg","67","","indoor","SR","","","","","","","","","","","","","",""
"image-keyboard-response","61","205115","0.0-2.0-6.0-0.40","1021.1999998092651","","","stimuli/Set_1_rs/191a.jpg","67","","indoor","SR","","","","","","","","","","","","","",""
"image-keyboard-response","62","207616","0.0-2.0-6.0-0.41","918.2000002861023","","","stimuli/Set_1_rs/061a.jpg","67","","indoor","SL","","","","","","","","","","","","","",""
"image-keyboard-response","63","210118","0.0-2.0-6.0-0.42","896.6999998092651","","","stimuli/Set_1_rs/162a.jpg","67","","indoor","SR","","","","","","","","","","","","","",""
"image-keyboard-response","64","212620","0.0-2.0-6.0-0.43","1178.7000002861023","","","stimuli/Set_1_rs/046a.jpg","67","","indoor","SR","","","","","","","","","","","","","",""
"image-keyboard-response","65","215123","0.0-2.0-6.0-0.44","980","","","stimuli/Set_1_rs/155a.jpg","77","","outdoor","SL","","","","","","","","","","","","","",""
"image-keyboard-response","66","217625","0.0-2.0-6.0-0.45","1038.1000003814697","","","stimuli/Set_1_rs/010a.jpg","77","","outdoor","SR","","","","","","","","","","","","","",""
"image-keyboard-response","67","220127","0.0-2.0-6.0-0.46","1015.8999996185303","","","stimuli/Set_1_rs/142a.jpg","77","","outdoor","SR","","","","","","","","","","","","","",""
"image-keyboard-response","68","222630","0.0-2.0-6.0-0.47","945.4000000953674","","","stimuli/Set_1_rs/045a.jpg","67","","indoor","SL","","","","","","","","","","","","","",""
"image-keyboard-response","69","225133","0.0-2.0-6.0-0.48","1034.2999997138977","","","stimuli/Set_1_rs/070a.jpg","67","","indoor","SR","","","","","","","","","","","","","",""
"image-keyboard-response","70","227635","0.0-2.0-6.0-0.49","1011.7999997138977","","","stimuli/Set_1_rs/022a.jpg","67","","indoor","SL","","","","","","","","","","","","","",""
"image-keyboard-response","71","230137","0.0-2.0-6.0-0.50","1214","","","stimuli/Set_1_rs/021a.jpg","67","","indoor","SR","","","","","","","","","","","","","",""
"image-keyboard-response","72","232640","0.0-2.0-6.0-0.51","919.4000000953674","","","stimuli/Set_1_rs/098a.jpg","67","","indoor","SL","","","","","","","","","","","","","",""
"image-keyboard-response","73","235143","0.0-2.0-6.0-0.52","880.5999999046326","","","stimuli/Set_1_rs/008a.jpg","67","","indoor","SL","","","","","","","","","","","","","",""
"image-keyboard-response","74","237644","0.0-2.0-6.0-0.53","921.9000000953674","","","stimuli/Set_1_rs/012a.jpg","67","","indoor","SL","","","","","","","","","","","","","",""
"image-keyboard-response","75","240146","0.0-2.0-6.0-0.54","916.2000002861023","","","stimuli/Set_1_rs/153a.jpg","67","","indoor","SR","","","","","","","","","","","","","",""
"image-keyboard-response","76","242648","0.0-2.0-6.0-0.55","1646.6999998092651","","","stimuli/Set_1_rs/068a.jpg","67","","indoor","SL","","","","","","","","","","","","","",""
"image-keyboard-response","77","245151","0.0-2.0-6.0-0.56","1000.3000001907349","","","stimuli/Set_1_rs/140a.jpg","67","","indoor","SL","","","","","","","","","","","","","",""
"image-keyboard-response","78","247652","0.0-2.0-6.0-0.57","865.9000000953674","","","stimuli/Set_1_rs/029a.jpg","67","","indoor","SR","","","","","","","","","","","","","",""
"image-keyboard-response","79","250154","0.0-2.0-6.0-0.58","1052.2000002861023","","","stimuli/Set_1_rs/049a.jpg","77","","outdoor","SR","","","","","","","","","","","","","",""
"image-keyboard-response","80","252656","0.0-2.0-6.0-0.59","774.2000002861023","","","stimuli/Set_1_rs/180a.jpg","67","","indoor","SR","","","","","","","","","","","","","",""
"image-keyboard-response","81","255159","0.0-2.0-6.0-0.60","927.8000001907349","","","stimuli/Set_1_rs/033a.jpg","67","","indoor","SL","","","","","","","","","","","","","",""
"image-keyboard-response","82","257660","0.0-2.0-6.0-0.61","1113.6000003814697","","","stimuli/Set_1_rs/119a.jpg","67","","indoor","SL","","","","","","","","","","","","","",""
"image-keyboard-response","83","260162","0.0-2.0-6.0-0.62","1076.0999999046326","","","stimuli/Set_1_rs/118a.jpg","77","","outdoor","SR","","","","","","","","","","","","","",""
"image-keyboard-response","84","262664","0.0-2.0-6.0-0.63","1021.7999997138977","","","stimuli/Set_1_rs/107a.jpg","77","","outdoor","SR","","","","","","","","","","","","","",""
"html-keyboard-response","85","286002","0.0-2.0-7.0","23336.599999904633","","","<p>Vége a feladat első részének. Tartson egy pár perces szünetet.</p>","32","","","","","","","","","","","","","","","","",""
"html-keyboard-response","86","306578","0.0-2.0-8.0-0.0","20574.599999904633","","","<p>A következőkben ismét tárgyak jelennek majd meg a képernyőn, egymás után.<br>Az Ön feladata eldönteni, látta-e már ezeket a tárgyakat a vizsgálat első felében.</p>		        			<p>Amennyiben pontosan ugyanezt a tárgyat látta (a tárgy <i>régi</i>), nyomja le a <b>C</b> billentyűt.</p>		        			<p>Amennyiben hasonló tárgyat látott (a tárgy <i>hasonló</i>), nyomja le a <b>B</b> billentyűt.</p>		        			<p>Amennyiben nem látta ezt a tárgyat az első részben (a tárgy <i>új</i>), nyomja le az <b>M</b> billentyűt.</p>","32","","","","","","","","","","","","","","","","",""
"html-keyboard-response","87","308579","0.0-2.0-8.0-1.0","null","","","<p>Kezdődik a gyakorlás...</p>","null","","","","","","","","","","","","","","","","",""
"image-keyboard-response","88","312582","0.0-2.0-9.0-0.0","1627.8999996185303","","","stimuli/Set_2_rs/049b.jpg","77","","","TL","l","false","n","","","","","","","","","","",""
"html-keyboard-response","89","314993","0.0-2.0-9.0-1.0","2409.4000000953674","","","<p>A helyes válasz: Hasonló.</p><p>Az Ön válasza: Új.</p>","32","","","","","","","","","","","","","","","","",""
"image-keyboard-response","90","318997","0.0-2.0-9.0-0.1","1534","","","stimuli/Set_2_rs/018b.jpg","77","","","TF","n","true","n","","","","","","","","","","",""
"html-keyboard-response","91","320049","0.0-2.0-9.0-1.1","1051.4000000953674","","","<p>A helyes válasz: Új.</p><p>Az Ön válasza: Új.</p>","32","","","","","","","","","","","","","","","","",""
"image-keyboard-response","92","324052","0.0-2.0-9.0-0.2","1485.9000000953674","","","stimuli/Set_2_rs/028a.jpg","67","","","TR","o","true","o","","","","","","","","","","",""
"html-keyboard-response","93","325153","0.0-2.0-9.0-1.2","1099.5","","","<p>A helyes válasz: Régi.</p><p>Az Ön válasza: Régi.</p>","32","","","","","","","","","","","","","","","","",""
"image-keyboard-response","94","329157","0.0-2.0-9.0-0.3","1181.6999998092651","","","stimuli/Set_2_rs/137a.jpg","67","","","TR","o","true","o","","","","","","","","","","",""
"html-keyboard-response","95","330241","0.0-2.0-9.0-1.3","1082.9000000953674","","","<p>A helyes válasz: Régi.</p><p>Az Ön válasza: Régi.</p>","32","","","","","","","","","","","","","","","","",""
"image-keyboard-response","96","334245","0.0-2.0-9.0-0.4","1245.5999999046326","","","stimuli/Set_2_rs/135b.jpg","67","","","TL","l","false","o","","","","","","","","","","",""
"html-keyboard-response","97","336097","0.0-2.0-9.0-1.4","1850.9000000953674","","","<p>A helyes válasz: Hasonló.</p><p>Az Ön válasza: Régi.</p>","32","","","","","","","","","","","","","","","","",""
"image-keyboard-response","98","340100","0.0-2.0-9.0-0.5","1485.7000002861023","","","stimuli/Set_2_rs/019a.jpg","77","","","TF","n","true","n","","","","","","","","","","",""
"html-keyboard-response","99","341313","0.0-2.0-9.0-1.5","1211.5","","","<p>A helyes válasz: Új.</p><p>Az Ön válasza: Új.</p>","32","","","","","","","","","","","","","","","","",""
"html-keyboard-response","100","344577","0.0-2.0-10.0-0.0","3262.9000000953674","","","<p>Ez volt a gyakorlás. A feladat következik. A feladat alatt már nem kap visszajelzést.</p>","32","","","","","","","","","","","","","","","","",""
"html-keyboard-response","101","346579","0.0-2.0-10.0-1.0","null","","","<p>Kezdődik a feladat...</p>","null","","","","","","","","","","","","","","","","",""
"image-keyboard-response","102","351081","0.0-2.0-11.0-0.0","1180.2999997138977","","","stimuli/Set_1_rs/181a.jpg","77","","","TF","n","true","n","","","","","","","","","","",""
"image-keyboard-response","103","355586","0.0-2.0-11.0-0.1","981.2000002861023","","","stimuli/Set_1_rs/152a.jpg","77","","","TF","n","true","n","","","","","","","","","","",""
"image-keyboard-response","104","360090","0.0-2.0-11.0-0.2","1724.6000003814697","","","stimuli/Set_1_rs/090b.jpg","66","","","TL","s","true","s","","","","","","","","","","",""
"image-keyboard-response","105","364593","0.0-2.0-11.0-0.3","868.9000000953674","","","stimuli/Set_1_rs/126a.jpg","77","","","TF","n","true","n","","","","","","","","","","",""
"image-keyboard-response","106","369096","0.0-2.0-11.0-0.4","1214","","","stimuli/Set_1_rs/068b.jpg","77","","","TL","s","false","n","","","","","","","","","","",""
"image-keyboard-response","107","373599","0.0-2.0-11.0-0.5","1382","","","stimuli/Set_1_rs/054a.jpg","67","","","TR","o","true","o","","","","","","","","","","",""
"image-keyboard-response","108","378103","0.0-2.0-11.0-0.6","991.5","","","stimuli/Set_1_rs/162a.jpg","67","","","TR","o","true","o","","","","","","","","","","",""
"image-keyboard-response","109","382606","0.0-2.0-11.0-0.7","1351.9000000953674","","","stimuli/Set_1_rs/019a.jpg","77","","","TF","n","true","n","","","","","","","","","","",""
"image-keyboard-response","110","387109","0.0-2.0-11.0-0.8","1600.6000003814697","","","stimuli/Set_1_rs/119b.jpg","66","","","TL","s","true","s","","","","","","","","","","",""
"image-keyboard-response","111","391612","0.0-2.0-11.0-0.9","1689.8000001907349","","","stimuli/Set_1_rs/052b.jpg","66","","","TL","s","true","s","","","","","","","","","","",""
"image-keyboard-response","112","396114","0.0-2.0-11.0-0.10","1074.8000001907349","","","stimuli/Set_1_rs/135a.jpg","77","","","TF","n","true","n","","","","","","","","","","",""
"image-keyboard-response","113","400617","0.0-2.0-11.0-0.11","940.0999999046326","","","stimuli/Set_1_rs/004a.jpg","77","","","TF","n","true","n","","","","","","","","","","",""
"image-keyboard-response","114","405120","0.0-2.0-11.0-0.12","884.6999998092651","","","stimuli/Set_1_rs/072a.jpg","77","","","TF","n","true","n","","","","","","","","","","",""
"image-keyboard-response","115","409624","0.0-2.0-11.0-0.13","1005.8999996185303","","","stimuli/Set_1_rs/028a.jpg","77","","","TF","n","true","n","","","","","","","","","","",""
"image-keyboard-response","116","414126","0.0-2.0-11.0-0.14","1654.3000001907349","","","stimuli/Set_1_rs/091a.jpg","67","","","TR","o","true","o","","","","","","","","","","",""
"image-keyboard-response","117","418629","0.0-2.0-11.0-0.15","1552.0999999046326","","","stimuli/Set_1_rs/108a.jpg","77","","","TF","n","true","n","","","","","","","","","","",""
"image-keyboard-response","118","423132","0.0-2.0-11.0-0.16","1784.9000000953674","","","stimuli/Set_1_rs/146a.jpg","66","","","TF","n","false","s","","","","","","","","","","",""
"image-keyboard-response","119","427636","0.0-2.0-11.0-0.17","1457.8000001907349","","","stimuli/Set_1_rs/013b.jpg","66","","","TL","s","true","s","","","","","","","","","","",""
"image-keyboard-response","120","432139","0.0-2.0-11.0-0.18","1386.2000002861023","","","stimuli/Set_1_rs/141a.jpg","77","","","TF","n","true","n","","","","","","","","","","",""
"image-keyboard-response","121","436642","0.0-2.0-11.0-0.19","1587.0999999046326","","","stimuli/Set_1_rs/156b.jpg","67","","","TL","s","false","o","","","","","","","","","","",""
"image-keyboard-response","122","441145","0.0-2.0-11.0-0.20","1356","","","stimuli/Set_1_rs/024a.jpg","67","","","TR","o","true","o","","","","","","","","","","",""
"image-keyboard-response","123","445648","0.0-2.0-11.0-0.21","2069","","","stimuli/Set_1_rs/046a.jpg","66","","","TR","o","false","s","","","","","","","","","","",""
"image-keyboard-response","124","450151","0.0-2.0-11.0-0.22","2494.4000000953674","","","stimuli/Set_1_rs/100b.jpg","66","","","TL","s","true","s","","","","","","","","","","",""
"image-keyboard-response","125","454655","0.0-2.0-11.0-0.23","1047.1999998092651","","","stimuli/Set_1_rs/080a.jpg","77","","","TF","n","true","n","","","","","","","","","","",""
"image-keyboard-response","126","459158","0.0-2.0-11.0-0.24","1518.6999998092651","","","stimuli/Set_1_rs/094b.jpg","67","","","TL","s","false","o","","","","","","","","","","",""
"image-keyboard-response","127","463661","0.0-2.0-11.0-0.25","1591.3000001907349","","","stimuli/Set_1_rs/190a.jpg","66","","","TF","n","false","s","","","","","","","","","","",""
"image-keyboard-response","128","468165","0.0-2.0-11.0-0.26","1600.2000002861023","","","stimuli/Set_1_rs/137a.jpg","67","","","TR","o","true","o","","","","","","","","","","",""
"image-keyboard-response","129","472668","0.0-2.0-11.0-0.27","1368.5","","","stimuli/Set_1_rs/180a.jpg","67","","","TR","o","true","o","","","","","","","","","","",""
"image-keyboard-response","130","477171","0.0-2.0-11.0-0.28","1553.9000000953674","","","stimuli/Set_1_rs/134b.jpg","66","","","TL","s","true","s","","","","","","","","","","",""
"image-keyboard-response","131","481675","0.0-2.0-11.0-0.29","1098.3000001907349","","","stimuli/Set_1_rs/088a.jpg","77","","","TF","n","true","n","","","","","","","","","","",""
"image-keyboard-response","132","486178","0.0-2.0-11.0-0.30","1090.7000002861023","","","stimuli/Set_1_rs/165a.jpg","77","","","TF","n","true","n","","","","","","","","","","",""
"image-keyboard-response","133","490681","0.0-2.0-11.0-0.31","1419.5","","","stimuli/Set_1_rs/075b.jpg","66","","","TL","s","true","s","","","","","","","","","","",""
"image-keyboard-response","134","495186","0.0-2.0-11.0-0.32","1410.2999997138977","","","stimuli/Set_1_rs/191a.jpg","67","","","TR","o","true","o","","","","","","","","","","",""
"image-keyboard-response","135","499689","0.0-2.0-11.0-0.33","1099.4000000953674","","","stimuli/Set_1_rs/112a.jpg","67","","","TR","o","true","o","","","","","","","","","","",""
"image-keyboard-response","136","504192","0.0-2.0-11.0-0.34","1683.9000000953674","","","stimuli/Set_1_rs/171a.jpg","66","","","TF","n","false","s","","","","","","","","","","",""
"image-keyboard-response","137","508695","0.0-2.0-11.0-0.35","1133","","","stimuli/Set_1_rs/021a.jpg","67","","","TR","o","true","o","","","","","","","","","","",""
"image-keyboard-response","138","513198","0.0-2.0-11.0-0.36","1174.0999999046326","","","stimuli/Set_1_rs/157a.jpg","67","","","TR","o","true","o","","","","","","","","","","",""
"image-keyboard-response","139","517701","0.0-2.0-11.0-0.37","1182.8000001907349","","","stimuli/Set_1_rs/059b.jpg","67","","","TL","s","false","o","","","","","","","","","","",""
"image-keyboard-response","140","522205","0.0-2.0-11.0-0.38","1719.5","","","stimuli/Set_1_rs/153a.jpg","67","","","TR","o","true","o","","","","","","","","","","",""
"image-keyboard-response","141","526708","0.0-2.0-11.0-0.39","1424.1999998092651","","","stimuli/Set_1_rs/002a.jpg","77","","","TF","n","true","n","","","","","","","","","","",""
"image-keyboard-response","142","531211","0.0-2.0-11.0-0.40","1336.9000000953674","","","stimuli/Set_1_rs/041a.jpg","77","","","TF","n","true","n","","","","","","","","","","",""
"image-keyboard-response","143","535715","0.0-2.0-11.0-0.41","2289.699999809265","","","stimuli/Set_1_rs/012b.jpg","66","","","TL","s","true","s","","","","","","","","","","",""
"image-keyboard-response","144","540218","0.0-2.0-11.0-0.42","2153.9000000953674","","","stimuli/Set_1_rs/083b.jpg","66","","","TL","s","true","s","","","","","","","","","","",""
"image-keyboard-response","145","544721","0.0-2.0-11.0-0.43","1282.6999998092651","","","stimuli/Set_1_rs/051a.jpg","77","","","TF","n","true","n","","","","","","","","","","",""
"image-keyboard-response","146","549225","0.0-2.0-11.0-0.44","1771.0999999046326","","","stimuli/Set_1_rs/168a.jpg","77","","","TF","n","true","n","","","","","","","","","","",""
"image-keyboard-response","147","553728","0.0-2.0-11.0-0.45","1476.0999999046326","","","stimuli/Set_1_rs/155b.jpg","66","","","TL","s","true","s","","","","","","","","","","",""
"image-keyboard-response","148","558231","0.0-2.0-11.0-0.46","1468.6999998092651","","","stimuli/Set_1_rs/045b.jpg","66","","","TL","s","true","s","","","","","","","","","","",""
"image-keyboard-response","149","562734","0.0-2.0-11.0-0.47","1445.2000002861023","","","stimuli/Set_1_rs/031b.jpg","66","","","TL","s","true","s","","","","","","","","","","",""
"image-keyboard-response","150","567237","0.0-2.0-11.0-0.48","1358.2999997138977","","","stimuli/Set_1_rs/136a.jpg","67","","","TR","o","true","o","","","","","","","","","","",""
"image-keyboard-response","151","571740","0.0-2.0-11.0-0.49","1367.4000000953674","","","stimuli/Set_1_rs/053a.jpg","77","","","TF","n","true","n","","","","","","","","","","",""
"image-keyboard-response","152","576243","0.0-2.0-11.0-0.50","1536.3999996185303","","","stimuli/Set_1_rs/061b.jpg","66","","","TL","s","true","s","","","","","","","","","","",""
"image-keyboard-response","153","580746","0.0-2.0-11.0-0.51","1353.2999997138977","","","stimuli/Set_1_rs/062a.jpg","77","","","TF","n","true","n","","","","","","","","","","",""
"image-keyboard-response","154","585249","0.0-2.0-11.0-0.52","1442.7999997138977","","","stimuli/Set_1_rs/009a.jpg","66","","","TR","o","false","s","","","","","","","","","","",""
"image-keyboard-response","155","589752","0.0-2.0-11.0-0.53","1771.4000000953674","","","stimuli/Set_1_rs/099b.jpg","67","","","TL","s","false","o","","","","","","","","","","",""
"image-keyboard-response","156","594256","0.0-2.0-11.0-0.54","1380.2000002861023","","","stimuli/Set_1_rs/030a.jpg","67","","","TR","o","true","o","","","","","","","","","","",""
"image-keyboard-response","157","598759","0.0-2.0-11.0-0.55","1212.5","","","stimuli/Set_1_rs/029a.jpg","67","","","TR","o","true","o","","","","","","","","","","",""
"image-keyboard-response","158","603262","0.0-2.0-11.0-0.56","1589","","","stimuli/Set_1_rs/140b.jpg","66","","","TL","s","true","s","","","","","","","","","","",""
"image-keyboard-response","159","607765","0.0-2.0-11.0-0.57","1421.8000001907349","","","stimuli/Set_1_rs/182a.jpg","77","","","TF","n","true","n","","","","","","","","","","",""
"image-keyboard-response","160","612268","0.0-2.0-11.0-0.58","1366.5","","","stimuli/Set_1_rs/151a.jpg","77","","","TF","n","true","n","","","","","","","","","","",""
"image-keyboard-response","161","616771","0.0-2.0-11.0-0.59","1791.5999999046326","","","stimuli/Set_1_rs/142a.jpg","66","","","TR","o","false","s","","","","","","","","","","",""
"image-keyboard-response","162","621274","0.0-2.0-11.0-0.60","1240.2999997138977","","","stimuli/Set_1_rs/070a.jpg","67","","","TR","o","true","o","","","","","","","","","","",""
"image-keyboard-response","163","625778","0.0-2.0-11.0-0.61","1569.3999996185303","","","stimuli/Set_1_rs/121a.jpg","77","","","TF","n","true","n","","","","","","","","","","",""
"image-keyboard-response","164","630281","0.0-2.0-11.0-0.62","1337.5999999046326","","","stimuli/Set_1_rs/008b.jpg","66","","","TL","s","true","s","","","","","","","","","","",""
"image-keyboard-response","165","634784","0.0-2.0-11.0-0.63","1666.8000001907349","","","stimuli/Set_1_rs/092b.jpg","66","","","TL","s","true","s","","","","","","","","","","",""
"image-keyboard-response","166","639287","0.0-2.0-11.0-0.64","1227.1999998092651","","","stimuli/Set_1_rs/192a.jpg","67","","","TR","o","true","o","","","","","","","","","","",""
"image-keyboard-response","167","643791","0.0-2.0-11.0-0.65","1284.0999999046326","","","stimuli/Set_1_rs/147a.jpg","67","","","TR","o","true","o","","","","","","","","","","",""
"image-keyboard-response","168","648294","0.0-2.0-11.0-0.66","1932.5999999046326","","","stimuli/Set_1_rs/032a.jpg","77","","","TF","n","true","n","","","","","","","","","","",""
"image-keyboard-response","169","652798","0.0-2.0-11.0-0.67","1605.3000001907349","","","stimuli/Set_1_rs/128b.jpg","66","","","TL","s","true","s","","","","","","","","","","",""
"image-keyboard-response","170","657301","0.0-2.0-11.0-0.68","1484.7000002861023","","","stimuli/Set_1_rs/186a.jpg","77","","","TF","n","true","n","","","","","","","","","","",""
"image-keyboard-response","171","661805","0.0-2.0-11.0-0.69","1429.6999998092651","","","stimuli/Set_1_rs/109a.jpg","67","","","TR","o","true","o","","","","","","","","","","",""
"image-keyboard-response","172","666308","0.0-2.0-11.0-0.70","1550.7000002861023","","","stimuli/Set_1_rs/160a.jpg","77","","","TF","n","true","n","","","","","","","","","","",""
"image-keyboard-response","173","670811","0.0-2.0-11.0-0.71","1751.2999997138977","","","stimuli/Set_1_rs/086a.jpg","67","","","TR","o","true","o","","","","","","","","","","",""
"image-keyboard-response","174","675313","0.0-2.0-11.0-0.72","1392.9000000953674","","","stimuli/Set_1_rs/023b.jpg","66","","","TL","s","true","s","","","","","","","","","","",""
"image-keyboard-response","175","679816","0.0-2.0-11.0-0.73","1706.4000000953674","","","stimuli/Set_1_rs/114b.jpg","66","","","TL","s","true","s","","","","","","","","","","",""
"image-keyboard-response","176","684320","0.0-2.0-11.0-0.74","1491","","","stimuli/Set_1_rs/033b.jpg","66","","","TL","s","true","s","","","","","","","","","","",""
"image-keyboard-response","177","688823","0.0-2.0-11.0-0.75","1611.3000001907349","","","stimuli/Set_1_rs/010a.jpg","67","","","TR","o","true","o","","","","","","","","","","",""
"image-keyboard-response","178","693326","0.0-2.0-11.0-0.76","1204.0999999046326","","","stimuli/Set_1_rs/150a.jpg","67","","","TR","o","true","o","","","","","","","","","","",""
"image-keyboard-response","179","697829","0.0-2.0-11.0-0.77","1181.2000002861023","","","stimuli/Set_1_rs/038a.jpg","67","","","TR","o","true","o","","","","","","","","","","",""
"image-keyboard-response","180","702332","0.0-2.0-11.0-0.78","1381.6999998092651","","","stimuli/Set_1_rs/022b.jpg","66","","","TL","s","true","s","","","","","","","","","","",""
"image-keyboard-response","181","706836","0.0-2.0-11.0-0.79","1614.8000001907349","","","stimuli/Set_1_rs/018a.jpg","77","","","TF","n","true","n","","","","","","","","","","",""
"image-keyboard-response","182","711339","0.0-2.0-11.0-0.80","1287","","","stimuli/Set_1_rs/081a.jpg","77","","","TF","n","true","n","","","","","","","","","","",""
"image-keyboard-response","183","715842","0.0-2.0-11.0-0.81","1727.7999997138977","","","stimuli/Set_1_rs/107a.jpg","67","","","TR","o","true","o","","","","","","","","","","",""
"image-keyboard-response","184","720345","0.0-2.0-11.0-0.82","1672.6000003814697","","","stimuli/Set_1_rs/101b.jpg","67","","","TL","s","false","o","","","","","","","","","","",""
"image-keyboard-response","185","724848","0.0-2.0-11.0-0.83","1457.5999999046326","","","stimuli/Set_1_rs/178b.jpg","66","","","TL","s","true","s","","","","","","","","","","",""
"image-keyboard-response","186","729351","0.0-2.0-11.0-0.84","1466.8000001907349","","","stimuli/Set_1_rs/103b.jpg","66","","","TL","s","true","s","","","","","","","","","","",""
"image-keyboard-response","187","733855","0.0-2.0-11.0-0.85","1460.0999999046326","","","stimuli/Set_1_rs/116b.jpg","66","","","TL","s","true","s","","","","","","","","","","",""
"image-keyboard-response","188","738358","0.0-2.0-11.0-0.86","1291.8000001907349","","","stimuli/Set_1_rs/122a.jpg","77","","","TF","n","true","n","","","","","","","","","","",""
"image-keyboard-response","189","742861","0.0-2.0-11.0-0.87","1668.8000001907349","","","stimuli/Set_1_rs/044a.jpg","67","","","TR","o","true","o","","","","","","","","","","",""
"image-keyboard-response","190","747364","0.0-2.0-11.0-0.88","1421.5999999046326","","","stimuli/Set_1_rs/049a.jpg","66","","","TR","o","false","s","","","","","","","","","","",""
"image-keyboard-response","191","751868","0.0-2.0-11.0-0.89","1382","","","stimuli/Set_1_rs/118a.jpg","67","","","TR","o","true","o","","","","","","","","","","",""
"image-keyboard-response","192","756372","0.0-2.0-11.0-0.90","1182.3999996185303","","","stimuli/Set_1_rs/040a.jpg","67","","","TR","o","true","o","","","","","","","","","","",""
"image-keyboard-response","193","760875","0.0-2.0-11.0-0.91","1478.7999997138977","","","stimuli/Set_1_rs/011b.jpg","66","","","TL","s","true","s","","","","","","","","","","",""
"image-keyboard-response","194","765378","0.0-2.0-11.0-0.92","1183.5999999046326","","","stimuli/Set_1_rs/087a.jpg","77","","","TF","n","true","n","","","","","","","","","","",""
"image-keyboard-response","195","769882","0.0-2.0-11.0-0.93","1223.9000000953674","","","stimuli/Set_1_rs/063a.jpg","67","","","TR","o","true","o","","","","","","","","","","",""
"image-keyboard-response","196","774385","0.0-2.0-11.0-0.94","1472.5","","","stimuli/Set_1_rs/098b.jpg","66","","","TL","s","true","s","","","","","","","","","","",""
"image-keyboard-response","197","778888","0.0-2.0-11.0-0.95","1657.3000001907349","","","stimuli/Set_1_rs/058a.jpg","67","","","TR","o","true","o","","","","","","","","","","",""
"html-keyboard-response","198","791436","0.0-3.0","12546.800000190735","","","<p>Vége a feladatnak. Köszönjük a részvételt!</p>","32","","","","","","","30","4","0","6","26","2","0","3","31","0.8823529411764706","0.676470588235294"
