itemno,wordA,wordB,enc_gyak.thisRepN,enc_gyak.thisTrialN,enc_gyak.thisN,enc_gyak.thisIndex,rec_gyak.thisRepN,rec_gyak.thisTrialN,rec_gyak.thisN,rec_gyak.thisIndex,repeat_task.thisRepN,repeat_task.thisTrialN,repeat_task.thisN,repeat_task.thisIndex,enc_loop.thisRepN,enc_loop.thisTrialN,enc_loop.thisN,enc_loop.thisIndex,test_loop.thisRepN,test_loop.thisTrialN,test_loop.thisN,test_loop.thisIndex,int.started,int.stopped,int_key.keys,int_key.rt,int_key.started,int_key.stopped,prepare_gyak_text.started,prepare_gyak_text.stopped,fix.started,fix.stopped,word1.started,word1.stopped,word2.started,word2.stopped,gykrec_inst.started,gykrec_inst.stopped,gyakrec_inst.keys,gyakrec_inst.rt,gyakrec_inst.started,gyakrec_inst.stopped,cueword,cueword1.started,cueword1.stopped,cue_resp.keys,cue_resp.started,cue_resp.stopped,cue_cont_text.started,cue_cont_text.stopped,cue_space.started,cue_space.stopped,test_ansbox.text,test_ansbox.started,test_ansbox.stopped,ans_text.started,ans_text.stopped,ans_continue.keys,ans_continue.rt,ans_continue.started,ans_continue.stopped,feedback_text.started,feedback_text.stopped,feedback_cont.keys,feedback_cont.rt,feedback_cont.started,feedback_cont.stopped,cue_resp.rt,main_prep.started,main_prep.stopped,main_prep_resp.keys,main_prep_resp.rt,main_prep_resp.started,main_prep_resp.stopped,preparation.started,preparation.stopped,break_text.started,break_text.stopped,key_resp.keys,key_resp.rt,key_resp.started,key_resp.stopped,test_instruction.started,test_instruction.stopped,test_i_key.keys,test_i_key.rt,test_i_key.started,test_i_key.stopped,rep_routine.keys,rep_routine.rt,rep_routine.started,rep_routine.stopped,encrep_textbox.started,encrep_textbox.stopped,Résztvevő kódja,date,expName,psychopyVersion,frameRate,
,,,,,,,,,,,,,,,,,,,,,,,32.453292263671756,None,4,28.17958851205185,32.453292263671756,None,,,,,,,,,,,,,,,,,,,,,,,,,,,,,,,,,,,,,,,,,,,,,,,,,,,,,,,,,,,,,,,,,,,093503,2022_Apr_22_1418,palt,2021.1.2,51.931022511869465,
2,lepke,szintetizátor,0,0,0,1,,,,,,,,,,,,,,,,,,,,,,,60.6731571869459,None,63.71839790046215,None,64.71501196129248,None,64.71501196129248,None,,,,,,,,,,,,,,,,,,,,,,,,,,,,,,,,,,,,,,,,,,,,,,,,,,,,,,,,,,,093503,2022_Apr_22_1418,palt,2021.1.2,51.931022511869465,
1,sapka,beton,0,1,1,0,,,,,,,,,,,,,,,,,,,,,,,,,70.6944148640614,None,71.70227433601394,None,71.70227433601394,None,,,,,,,,,,,,,,,,,,,,,,,,,,,,,,,,,,,,,,,,,,,,,,,,,,,,,,,,,,,093503,2022_Apr_22_1418,palt,2021.1.2,51.931022511869465,
4,kard,harcsa,0,2,2,3,,,,,,,,,,,,,,,,,,,,,,,,,77.69947806699201,None,78.69538178667426,None,78.69538178667426,None,,,,,,,,,,,,,,,,,,,,,,,,,,,,,,,,,,,,,,,,,,,,,,,,,,,,,,,,,,,093503,2022_Apr_22_1418,palt,2021.1.2,51.931022511869465,
3,majoránna,szikla,0,3,3,2,,,,,,,,,,,,,,,,,,,,,,,,,84.70166569412686,None,85.69818862969987,None,85.69818862969987,None,,,,,,,,,,,,,,,,,,,,,,,,,,,,,,,,,,,,,,,,,,,,,,,,,,,,,,,,,,,093503,2022_Apr_22_1418,palt,2021.1.2,51.931022511869465,
,,,,,,,,,,,,,,,,,,,,,,,,,,,,,,,,,,,,,91.69883583649062,None,4,16.31943119200878,91.69883583649062,None,,,,,,,,,,,,,,,,,,,,,,,,,,,,,,,,,,,,,,,,,,,,,,,,,,,,,093503,2022_Apr_22_1418,palt,2021.1.2,51.931022511869465,
1,sapka,beton,,,,,0,0,0,0,,,,,,,,,,,,,,,,,,,,,108.06296721100807,None,,,,,,,,,,,beton,109.0886611000169,None,None,109.0886611000169,None,109.0886611000169,None,109.0886611000169,None, ,124.06597776408307,None,124.06597776408307,None,down,1.8378602555021644,124.06597776408307,None,125.95482615288347,None,4,7.547929374035448,125.95482615288347,None,,,,,,,,,,,,,,,,,,,,,,,,,,,,093503,2022_Apr_22_1418,palt,2021.1.2,51.931022511869465,
3,majoránna,szikla,,,,,0,1,1,2,,,,,,,,,,,,,,,,,,,,,133.5490567763336,None,,,,,,,,,,,majoránna,134.5558812150266,None,4,134.5558812150266,None,134.5558812150266,None,134.5558812150266,None,szikla,140.54918366740458,None,140.54918366740458,None,down,2.21852137055248,140.54918366740458,None,142.8056327200029,None,4,2.3250395911745727,142.8056327200029,None,5.963004718534648,,,,,,,,,,,,,,,,,,,,,,,,,,,093503,2022_Apr_22_1418,palt,2021.1.2,51.931022511869465,
4,kard,harcsa,,,,,0,2,2,3,,,,,,,,,,,,,,,,,,,,,145.1679036472924,None,,,,,,,,,,,harcsa,146.184877817519,None,4,146.184877817519,None,146.184877817519,None,146.184877817519,None,kard,148.80283396295272,None,148.80283396295272,None,down,3.2447797381319106,148.80283396295272,None,152.08452843152918,None,4,1.259318097261712,152.08452843152918,None,2.5800129130948335,,,,,,,,,,,,,,,,,,,,,,,,,,,093503,2022_Apr_22_1418,palt,2021.1.2,51.931022511869465,
2,lepke,szintetizátor,,,,,0,3,3,1,,,,,,,,,,,,,,,,,,,,,153.37958440673538,None,,,,,,,,,,,szintetizátor,154.4006004310213,None,4,154.4006004310213,None,154.4006004310213,None,154.4006004310213,None,lap,165.3238132884726,None,165.3238132884726,None,down,3.2035423137713224,165.3238132884726,None,168.57339373929426,None,4,4.344037487637252,168.57339373929426,None,10.887827039929107,,,,,,,,,,,,,,,,,,,,,,,,,,,093503,2022_Apr_22_1418,palt,2021.1.2,51.931022511869465,
,,,,,,,,,,,,,,,,,,,,,,,,,,,,,,,,,,,,,,,,,,,,,,,,,,,,,,,,,,,,,,,,,,,,,172.9463288045954,None,4,46.9466796212364,172.9463288045954,None,,,,,,,,,,,,,,,,,,,,,093503,2022_Apr_22_1418,palt,2021.1.2,51.931022511869465,
4,mocsár,ananász,,,,,,,,,0,0,0,0,0,0,0,3,,,,,,,,,,,,,223.96031574718654,None,224.95737734786235,None,224.95737734786235,None,,,,,,,,,,,,,,,,,,,,,,,,,,,,,,,,,,,,,,,219.9347751850728,None,,,,,,,,,,,,,,,,,,,093503,2022_Apr_22_1418,palt,2021.1.2,51.931022511869465,
5,karton,hentes,,,,,,,,,0,0,0,0,0,1,1,4,,,,,,,,,,,,,230.93443836388178,None,231.948195471894,None,231.948195471894,None,,,,,,,,,,,,,,,,,,,,,,,,,,,,,,,,,,,,,,,,,,,,,,,,,,,,,,,,,,,093503,2022_Apr_22_1418,palt,2021.1.2,51.931022511869465,
9,szilva,kecske,,,,,,,,,0,0,0,0,0,2,2,8,,,,,,,,,,,,,237.93781403987668,None,238.95135904080234,None,238.95135904080234,None,,,,,,,,,,,,,,,,,,,,,,,,,,,,,,,,,,,,,,,,,,,,,,,,,,,,,,,,,,,093503,2022_Apr_22_1418,palt,2021.1.2,51.931022511869465,
1,bagoly,kirakó,,,,,,,,,0,0,0,0,0,3,3,0,,,,,,,,,,,,,244.9362378534861,None,245.9530717593152,None,245.9530717593152,None,,,,,,,,,,,,,,,,,,,,,,,,,,,,,,,,,,,,,,,,,,,,,,,,,,,,,,,,,,,093503,2022_Apr_22_1418,palt,2021.1.2,51.931022511869465,
6,menta,triatlon,,,,,,,,,0,0,0,0,0,4,4,5,,,,,,,,,,,,,251.93783674342558,None,252.94115892611444,None,252.94115892611444,None,,,,,,,,,,,,,,,,,,,,,,,,,,,,,,,,,,,,,,,,,,,,,,,,,,,,,,,,,,,093503,2022_Apr_22_1418,palt,2021.1.2,51.931022511869465,
3,fogó,limonádé,,,,,,,,,0,0,0,0,0,5,5,2,,,,,,,,,,,,,258.93782616918907,None,259.95507527003065,None,259.95507527003065,None,,,,,,,,,,,,,,,,,,,,,,,,,,,,,,,,,,,,,,,,,,,,,,,,,,,,,,,,,,,093503,2022_Apr_22_1418,palt,2021.1.2,51.931022511869465,
7,csavarhúzó,hering,,,,,,,,,0,0,0,0,0,6,6,6,,,,,,,,,,,,,265.9470910842065,None,266.96358039346524,None,266.96358039346524,None,,,,,,,,,,,,,,,,,,,,,,,,,,,,,,,,,,,,,,,,,,,,,,,,,,,,,,,,,,,093503,2022_Apr_22_1418,palt,2021.1.2,51.931022511869465,
2,kötény,tisztás,,,,,,,,,0,0,0,0,0,7,7,1,,,,,,,,,,,,,272.9345061634667,None,273.95224105822854,None,273.95224105822854,None,,,,,,,,,,,,,,,,,,,,,,,,,,,,,,,,,,,,,,,,,,,,,,,,,,,,,,,,,,,093503,2022_Apr_22_1418,palt,2021.1.2,51.931022511869465,
10,málna,dominó,,,,,,,,,0,0,0,0,0,8,8,9,,,,,,,,,,,,,279.9541584197432,None,280.95642690872774,None,280.95642690872774,None,,,,,,,,,,,,,,,,,,,,,,,,,,,,,,,,,,,,,,,,,,,,,,,,,,,,,,,,,,,093503,2022_Apr_22_1418,palt,2021.1.2,51.931022511869465,
8,szalvéta,puska,,,,,,,,,0,0,0,0,0,9,9,7,,,,,,,,,,,,,286.9375649227295,None,287.9548196217511,None,287.9548196217511,None,,,,,,,,,,,,,,,,,,,,,,,,,,,,,,,,,,,,,,,,,,,,,,,,,,,,,,,,,,,093503,2022_Apr_22_1418,palt,2021.1.2,51.931022511869465,
2,kötény,tisztás,,,,,,,,,0,0,0,0,,,,,0,0,0,1,,,,,,,,,309.68797794077545,None,,,,,,,,,,,tisztás,310.6813310873695,None,4,310.6813310873695,None,310.6813310873695,None,310.6813310873695,None,kard,316.4611424054019,None,316.4611424054019,None,down,3.409042731160298,316.4611424054019,None,319.8908145783935,None,4,2.0943842611741275,319.8908145783935,None,5.741907894611359,,,,,,,305.6588433752768,None,293.93677993980236,None,u,5.485783533658832,293.93677993980236,None,299.47438759496436,None,4,6.146983724320307,299.47438759496436,None,,,,,,,093503,2022_Apr_22_1418,palt,2021.1.2,51.931022511869465,
9,szilva,kecske,,,,,,,,,0,0,0,0,,,,,0,1,1,8,,,,,,,,,322.01259549474344,None,,,,,,,,,,,szilva,323.0368173851166,None,None,323.0368173851166,None,323.0368173851166,None,323.0368173851166,None,,338.0383379010018,None,338.0383379010018,None,down,3.655593968462199,338.0383379010018,None,341.7363834672142,None,4,1.853640467626974,341.7363834672142,None,,,,,,,,,,,,,,,,,,,,,,,,,,,,093503,2022_Apr_22_1418,palt,2021.1.2,51.931022511869465,
4,mocsár,ananász,,,,,,,,,0,0,0,0,,,,,0,2,2,3,,,,,,,,,343.6220014207065,None,,,,,,,,,,,ananász,344.6574397981167,None,4,344.6574397981167,None,344.6574397981167,None,344.6574397981167,None,menta ,346.7533983795438,None,346.7533983795438,None,down,2.172578090801835,346.7533983795438,None,348.95277972333133,None,4,4.083171816775575,348.95277972333133,None,2.0578430506866425,,,,,,,,,,,,,,,,,,,,,,,,,,,093503,2022_Apr_22_1418,palt,2021.1.2,51.931022511869465,
3,fogó,limonádé,,,,,,,,,0,0,0,0,,,,,0,3,3,2,,,,,,,,,353.0661086982582,None,,,,,,,,,,,fogó,354.0782411028631,None,4,354.0782411028631,None,354.0782411028631,None,354.0782411028631,None, limonádé,355.5703237836715,None,355.5703237836715,None,down,2.3155970911029726,355.5703237836715,None,357.92601752327755,None,4,1.4108014788944274,357.92601752327755,None,1.4569599758833647,,,,,,,,,,,,,,,,,,,,,,,,,,,093503,2022_Apr_22_1418,palt,2021.1.2,51.931022511869465,
5,karton,hentes,,,,,,,,,0,0,0,0,,,,,0,4,4,4,,,,,,,,,359.3622538219206,None,,,,,,,,,,,karton,360.3822497415822,None,4,360.3822497415822,None,360.3822497415822,None,360.3822497415822,None, hering,362.00376910041086,None,362.00376910041086,None,down,2.1701102459337562,362.00376910041086,None,364.2145078179892,None,4,2.8472884495276958,364.2145078179892,None,1.5887205025646836,,,,,,,,,,,,,,,,,,,,,,,,,,,093503,2022_Apr_22_1418,palt,2021.1.2,51.931022511869465,
6,menta,triatlon,,,,,,,,,0,0,0,0,,,,,0,5,5,5,,,,,,,,,367.08522633253597,None,,,,,,,,,,,menta,368.10572857246734,None,4,368.10572857246734,None,368.10572857246734,None,368.10572857246734,None, tinta,379.6999063245021,None,379.6999063245021,None,down,2.6337344916537404,379.6999063245021,None,382.35623800288886,None,4,1.4274581102654338,382.35623800288886,None,11.545006213942543,,,,,,,,,,,,,,,,,,,,,,,,,,,093503,2022_Apr_22_1418,palt,2021.1.2,51.931022511869465,
7,csavarhúzó,hering,,,,,,,,,0,0,0,0,,,,,0,6,6,6,,,,,,,,,383.8126689547207,None,,,,,,,,,,,csavarhúzó,384.83581538079306,None,4,384.83581538079306,None,384.83581538079306,None,384.83581538079306,None, hering,388.1089027156122,None,388.1089027156122,None,down,2.224922838853672,388.1089027156122,None,390.3648631752003,None,4,2.174723420990631,390.3648631752003,None,3.244819236220792,,,,,,,,,,,,,,,,,,,,,,,,,,,093503,2022_Apr_22_1418,palt,2021.1.2,51.931022511869465,
8,szalvéta,puska,,,,,,,,,0,0,0,0,,,,,0,7,7,7,,,,,,,,,392.56356279039755,None,,,,,,,,,,,szalvéta,393.59033867460676,None,4,393.59033867460676,None,393.59033867460676,None,393.59033867460676,None, ,402.11026057461277,None,402.11026057461277,None,down,1.9671548032201827,402.11026057461277,None,404.1203397072386,None,4,1.5512363172601908,404.1203397072386,None,8.47721527563408,,,,,,,,,,,,,,,,,,,,,,,,,,,093503,2022_Apr_22_1418,palt,2021.1.2,51.931022511869465,
1,bagoly,kirakó,,,,,,,,,0,0,0,0,,,,,0,8,8,0,,,,,,,,,405.68974042055197,None,,,,,,,,,,,kirakó,406.7042619851418,None,4,406.7042619851418,None,406.7042619851418,None,406.7042619851418,None, ,412.1883555040695,None,412.1883555040695,None,down,1.4890603094827384,412.1883555040695,None,413.7162034311332,None,4,1.301166340475902,413.7162034311332,None,5.437083172146231,,,,,,,,,,,,,,,,,,,,,,,,,,,093503,2022_Apr_22_1418,palt,2021.1.2,51.931022511869465,
10,málna,dominó,,,,,,,,,0,0,0,0,,,,,0,9,9,9,,,,,,,,,415.06162179238163,None,,,,,,,,,,,dominó,416.08205716568045,None,4,416.08205716568045,None,416.08205716568045,None,416.08205716568045,None, menta,419.55769718810916,None,419.55769718810916,None,down,7.159603477688506,419.55769718810916,None,426.76608873158693,None,4,2.735210657818243,426.76608873158693,None,3.424244469264522,,,,,,,,,,,,,,,,,,,,,,,,,,,093503,2022_Apr_22_1418,palt,2021.1.2,51.931022511869465,
,,,,,,,,,,,0,0,0,0,,,,,,,,,,,,,,,,,,,,,,,,,,,,,,,,,,,,,,,,,,,,,,,,,,,,,,,,,,,,,,,,,,,,,,,,,,,4,23.38975932984613,429.5534133699257,None,429.5534133699257,None,093503,2022_Apr_22_1418,palt,2021.1.2,51.931022511869465,
9,szilva,kecske,,,,,,,,,1,0,1,0,0,0,0,8,,,,,,,,,,,,,457.00327708642,None,458.0021151623223,None,458.0021151623223,None,,,,,,,,,,,,,,,,,,,,,,,,,,,,,,,,,,,,,,,452.97836942458525,None,,,,,,,,,,,,,,,,,,,093503,2022_Apr_22_1418,palt,2021.1.2,51.931022511869465,
10,málna,dominó,,,,,,,,,1,0,1,0,0,1,1,9,,,,,,,,,,,,,463.98591726692393,None,464.9964100397192,None,464.9964100397192,None,,,,,,,,,,,,,,,,,,,,,,,,,,,,,,,,,,,,,,,,,,,,,,,,,,,,,,,,,,,093503,2022_Apr_22_1418,palt,2021.1.2,51.931022511869465,
6,menta,triatlon,,,,,,,,,1,0,1,0,0,2,2,5,,,,,,,,,,,,,470.98264235747047,None,472.0022548045963,None,472.0022548045963,None,,,,,,,,,,,,,,,,,,,,,,,,,,,,,,,,,,,,,,,,,,,,,,,,,,,,,,,,,,,093503,2022_Apr_22_1418,palt,2021.1.2,51.931022511869465,
5,karton,hentes,,,,,,,,,1,0,1,0,0,3,3,4,,,,,,,,,,,,,477.9846766577102,None,478.99914877233095,None,478.99914877233095,None,,,,,,,,,,,,,,,,,,,,,,,,,,,,,,,,,,,,,,,,,,,,,,,,,,,,,,,,,,,093503,2022_Apr_22_1418,palt,2021.1.2,51.931022511869465,
2,kötény,tisztás,,,,,,,,,1,0,1,0,0,4,4,1,,,,,,,,,,,,,484.98328458797187,None,485.99917085375637,None,485.99917085375637,None,,,,,,,,,,,,,,,,,,,,,,,,,,,,,,,,,,,,,,,,,,,,,,,,,,,,,,,,,,,093503,2022_Apr_22_1418,palt,2021.1.2,51.931022511869465,
3,fogó,limonádé,,,,,,,,,1,0,1,0,0,5,5,2,,,,,,,,,,,,,491.9837532762904,None,493.04864686820656,None,493.04864686820656,None,,,,,,,,,,,,,,,,,,,,,,,,,,,,,,,,,,,,,,,,,,,,,,,,,,,,,,,,,,,093503,2022_Apr_22_1418,palt,2021.1.2,51.931022511869465,
7,csavarhúzó,hering,,,,,,,,,1,0,1,0,0,6,6,6,,,,,,,,,,,,,498.98363167233765,None,499.9986667104531,None,499.9986667104531,None,,,,,,,,,,,,,,,,,,,,,,,,,,,,,,,,,,,,,,,,,,,,,,,,,,,,,,,,,,,093503,2022_Apr_22_1418,palt,2021.1.2,51.931022511869465,
4,mocsár,ananász,,,,,,,,,1,0,1,0,0,7,7,3,,,,,,,,,,,,,505.98538917605765,None,507.00278724962845,None,507.00278724962845,None,,,,,,,,,,,,,,,,,,,,,,,,,,,,,,,,,,,,,,,,,,,,,,,,,,,,,,,,,,,093503,2022_Apr_22_1418,palt,2021.1.2,51.931022511869465,
8,szalvéta,puska,,,,,,,,,1,0,1,0,0,8,8,7,,,,,,,,,,,,,512.9889349732548,None,514.0075195406098,None,514.0075195406098,None,,,,,,,,,,,,,,,,,,,,,,,,,,,,,,,,,,,,,,,,,,,,,,,,,,,,,,,,,,,093503,2022_Apr_22_1418,palt,2021.1.2,51.931022511869465,
1,bagoly,kirakó,,,,,,,,,1,0,1,0,0,9,9,0,,,,,,,,,,,,,519.9818203644827,None,520.9976148831192,None,520.9976148831192,None,,,,,,,,,,,,,,,,,,,,,,,,,,,,,,,,,,,,,,,,,,,,,,,,,,,,,,,,,,,093503,2022_Apr_22_1418,palt,2021.1.2,51.931022511869465,
5,karton,hentes,,,,,,,,,1,0,1,0,,,,,0,0,0,4,,,,,,,,,538.8404851593077,None,,,,,,,,,,,karton,539.838546960149,None,4,539.838546960149,None,539.838546960149,None,539.838546960149,None, hering,542.4185222412925,None,542.4185222412925,None,down,2.6337487979326397,542.4185222412925,None,545.0801569095347,None,4,3.9184311162680387,545.0801569095347,None,2.5328284022398293,,,,,,,534.8156117082108,None,526.9831290843431,None,u,5.909377997275442,526.9831290843431,None,532.9313525469042,None,4,1.849099446553737,532.9313525469042,None,,,,,,,093503,2022_Apr_22_1418,palt,2021.1.2,51.931022511869465,
6,menta,triatlon,,,,,,,,,1,0,1,0,,,,,0,1,1,5,,,,,,,,,549.0324486619793,None,,,,,,,,,,,menta,550.0563785161357,None,4,550.0563785161357,None,550.0563785161357,None,550.0563785161357,None,triatlon,552.2958817002364,None,552.2958817002364,None,down,2.8362933995667845,552.2958817002364,None,555.176854133606,None,4,1.2224145631771535,555.176854133606,None,2.210924700135365,,,,,,,,,,,,,,,,,,,,,,,,,,,093503,2022_Apr_22_1418,palt,2021.1.2,51.931022511869465,
8,szalvéta,puska,,,,,,,,,1,0,1,0,,,,,0,2,2,7,,,,,,,,,556.4304080170114,None,,,,,,,,,,,szalvéta,557.4466503863223,None,4,557.4466503863223,None,557.4466503863223,None,557.4466503863223,None, ,564.6322236168198,None,564.6322236168198,None,down,6.835957511328161,564.6322236168198,None,571.5178776471876,None,4,1.914296270813793,571.5178776471876,None,7.159679363714531,,,,,,,,,,,,,,,,,,,,,,,,,,,093503,2022_Apr_22_1418,palt,2021.1.2,51.931022511869465,
1,bagoly,kirakó,,,,,,,,,1,0,1,0,,,,,0,3,3,0,,,,,,,,,573.4542853108142,None,,,,,,,,,,,kirakó,574.468825224787,None,4,574.468825224787,None,574.468825224787,None,574.468825224787,None, bagoly,577.3956532340962,None,577.3956532340962,None,down,1.8163211164064705,577.3956532340962,None,579.2597709242254,None,4,1.2513469737023115,579.2597709242254,None,2.8962488134857267,,,,,,,,,,,,,,,,,,,,,,,,,,,093503,2022_Apr_22_1418,palt,2021.1.2,51.931022511869465,
3,fogó,limonádé,,,,,,,,,1,0,1,0,,,,,0,4,4,2,,,,,,,,,580.5403311483096,None,,,,,,,,,,,fogó,581.5579618555494,None,4,581.5579618555494,None,581.5579618555494,None,581.5579618555494,None,limonádé,582.8762208600529,None,582.8762208600529,None,down,2.383931359509006,582.8762208600529,None,585.2871933931019,None,4,1.0799703050870448,585.2871933931019,None,1.2861104649491608,,,,,,,,,,,,,,,,,,,,,,,,,,,093503,2022_Apr_22_1418,palt,2021.1.2,51.931022511869465,
9,szilva,kecske,,,,,,,,,1,0,1,0,,,,,0,5,5,8,,,,,,,,,586.3931968964171,None,,,,,,,,,,,szilva,587.4201068247203,None,4,587.4201068247203,None,587.4201068247203,None,587.4201068247203,None, kecske,588.7029890313279,None,588.7029890313279,None,down,1.981012055883184,588.7029890313279,None,590.7090132476296,None,4,0.985908247763291,590.7090132476296,None,1.244938662974164,,,,,,,,,,,,,,,,,,,,,,,,,,,093503,2022_Apr_22_1418,palt,2021.1.2,51.931022511869465,
4,mocsár,ananász,,,,,,,,,1,0,1,0,,,,,0,6,6,3,,,,,,,,,591.7225806410424,None,,,,,,,,,,,ananász,592.7466775062494,None,4,592.7466775062494,None,592.7466775062494,None,592.7466775062494,None, mocsár,593.7854138079565,None,593.7854138079565,None,down,1.8107624787371606,593.7854138079565,None,595.6306188178714,None,4,0.9086001673713326,595.6306188178714,None,0.9981473279185593,,,,,,,,,,,,,,,,,,,,,,,,,,,093503,2022_Apr_22_1418,palt,2021.1.2,51.931022511869465,
10,málna,dominó,,,,,,,,,1,0,1,0,,,,,0,7,7,9,,,,,,,,,596.5695341355167,None,,,,,,,,,,,dominó,597.5853550897446,None,4,597.5853550897446,None,597.5853550897446,None,597.5853550897446,None, menta,599.6304993908852,None,599.6304993908852,None,down,3.6453839014284313,599.6304993908852,None,603.3055170250591,None,4,2.429256666917354,603.3055170250591,None,2.012565016048029,,,,,,,,,,,,,,,,,,,,,,,,,,,093503,2022_Apr_22_1418,palt,2021.1.2,51.931022511869465,
2,kötény,tisztás,,,,,,,,,1,0,1,0,,,,,0,8,8,1,,,,,,,,,605.7544498960488,None,,,,,,,,,,,tisztás,606.7612942392007,None,4,606.7612942392007,None,606.7612942392007,None,606.7612942392007,None,,618.4502080017701,None,618.4502080017701,None,down,1.2735507360193878,618.4502080017701,None,619.7516411868855,None,4,1.219144940841943,619.7516411868855,None,11.65959819080308,,,,,,,,,,,,,,,,,,,,,,,,,,,093503,2022_Apr_22_1418,palt,2021.1.2,51.931022511869465,
7,csavarhúzó,hering,,,,,,,,,1,0,1,0,,,,,0,9,9,6,,,,,,,,,621.0073089883663,None,,,,,,,,,,,csavarhúzó,622.0353690227494,None,4,622.0353690227494,None,622.0353690227494,None,622.0353690227494,None,hering,623.4657729966566,None,623.4657729966566,None,down,2.193972922395915,623.4657729966566,None,625.6956153532956,None,4,1.5360118756070733,625.6956153532956,None,1.406283472198993,,,,,,,,,,,,,,,,,,,,,,,,,,,093503,2022_Apr_22_1418,palt,2021.1.2,51.931022511869465,
,,,,,,,,,,,1,0,1,0,,,,,,,,,,,,,,,,,,,,,,,,,,,,,,,,,,,,,,,,,,,,,,,,,,,,,,,,,,,,,,,,,,,,,,,,,,,4,10.563013862119988,627.3005999957677,None,627.3005999957677,None,093503,2022_Apr_22_1418,palt,2021.1.2,51.931022511869465,
6,menta,triatlon,,,,,,,,,2,0,2,0,0,0,0,5,,,,,,,,,,,,,641.9220950962044,None,642.9109887054656,None,642.9109887054656,None,,,,,,,,,,,,,,,,,,,,,,,,,,,,,,,,,,,,,,,637.8918670280837,None,,,,,,,,,,,,,,,,,,,093503,2022_Apr_22_1418,palt,2021.1.2,51.931022511869465,
10,málna,dominó,,,,,,,,,2,0,2,0,0,1,1,9,,,,,,,,,,,,,648.9008268446196,None,649.9159013805911,None,649.9159013805911,None,,,,,,,,,,,,,,,,,,,,,,,,,,,,,,,,,,,,,,,,,,,,,,,,,,,,,,,,,,,093503,2022_Apr_22_1418,palt,2021.1.2,51.931022511869465,
7,csavarhúzó,hering,,,,,,,,,2,0,2,0,0,2,2,6,,,,,,,,,,,,,655.8929079703521,None,656.9221003833227,None,656.9221003833227,None,,,,,,,,,,,,,,,,,,,,,,,,,,,,,,,,,,,,,,,,,,,,,,,,,,,,,,,,,,,093503,2022_Apr_22_1418,palt,2021.1.2,51.931022511869465,
2,kötény,tisztás,,,,,,,,,2,0,2,0,0,3,3,1,,,,,,,,,,,,,662.8995949437376,None,663.9153589834459,None,663.9153589834459,None,,,,,,,,,,,,,,,,,,,,,,,,,,,,,,,,,,,,,,,,,,,,,,,,,,,,,,,,,,,093503,2022_Apr_22_1418,palt,2021.1.2,51.931022511869465,
8,szalvéta,puska,,,,,,,,,2,0,2,0,0,4,4,7,,,,,,,,,,,,,669.8992416390684,None,670.9152771886438,None,670.9152771886438,None,,,,,,,,,,,,,,,,,,,,,,,,,,,,,,,,,,,,,,,,,,,,,,,,,,,,,,,,,,,093503,2022_Apr_22_1418,palt,2021.1.2,51.931022511869465,
3,fogó,limonádé,,,,,,,,,2,0,2,0,0,5,5,2,,,,,,,,,,,,,676.9005198802333,None,677.9138966260944,None,677.9138966260944,None,,,,,,,,,,,,,,,,,,,,,,,,,,,,,,,,,,,,,,,,,,,,,,,,,,,,,,,,,,,093503,2022_Apr_22_1418,palt,2021.1.2,51.931022511869465,
4,mocsár,ananász,,,,,,,,,2,0,2,0,0,6,6,3,,,,,,,,,,,,,683.900696532568,None,684.9155617605429,None,684.9155617605429,None,,,,,,,,,,,,,,,,,,,,,,,,,,,,,,,,,,,,,,,,,,,,,,,,,,,,,,,,,,,093503,2022_Apr_22_1418,palt,2021.1.2,51.931022511869465,
5,karton,hentes,,,,,,,,,2,0,2,0,0,7,7,4,,,,,,,,,,,,,690.9100796303246,None,691.9141802648082,None,691.9141802648082,None,,,,,,,,,,,,,,,,,,,,,,,,,,,,,,,,,,,,,,,,,,,,,,,,,,,,,,,,,,,093503,2022_Apr_22_1418,palt,2021.1.2,51.931022511869465,
9,szilva,kecske,,,,,,,,,2,0,2,0,0,8,8,8,,,,,,,,,,,,,697.8986535237636,None,698.9146066561807,None,698.9146066561807,None,,,,,,,,,,,,,,,,,,,,,,,,,,,,,,,,,,,,,,,,,,,,,,,,,,,,,,,,,,,093503,2022_Apr_22_1418,palt,2021.1.2,51.931022511869465,
1,bagoly,kirakó,,,,,,,,,2,0,2,0,0,9,9,0,,,,,,,,,,,,,704.8991274994332,None,705.9138922719285,None,705.9138922719285,None,,,,,,,,,,,,,,,,,,,,,,,,,,,,,,,,,,,,,,,,,,,,,,,,,,,,,,,,,,,093503,2022_Apr_22_1418,palt,2021.1.2,51.931022511869465,
1,bagoly,kirakó,,,,,,,,,2,0,2,0,,,,,0,0,0,0,,,,,,,,,721.5816282862797,None,,,,,,,,,,,kirakó,722.5839639529586,None,4,722.5839639529586,None,722.5839639529586,None,722.5839639529586,None,bagoly,723.7207808403764,None,723.7207808403764,None,down,3.2179873706772923,723.7207808403764,None,726.9705914368387,None,4,0.6743069817312062,726.9705914368387,None,1.0929511380381882,,,,,,,717.5590550471097,None,711.8985213455744,None,u,3.9204825221095234,711.8985213455744,None,715.853668458527,None,4,1.6742836562916636,715.853668458527,None,,,,,,,093503,2022_Apr_22_1418,palt,2021.1.2,51.931022511869465,
4,mocsár,ananász,,,,,,,,,2,0,2,0,,,,,0,1,1,3,,,,,,,,,727.6681639605667,None,,,,,,,,,,,ananász,728.6839407517109,None,4,728.6839407517109,None,728.6839407517109,None,728.6839407517109,None, mocsár,729.5864187355619,None,729.5864187355619,None,down,1.864294964587316,729.5864187355619,None,731.496541284956,None,4,0.5643113856203854,731.496541284956,None,0.8651682736817747,,,,,,,,,,,,,,,,,,,,,,,,,,,093503,2022_Apr_22_1418,palt,2021.1.2,51.931022511869465,
6,menta,triatlon,,,,,,,,,2,0,2,0,,,,,0,2,2,5,,,,,,,,,732.0925630007405,None,,,,,,,,,,,menta,733.114537861431,None,4,733.114537861431,None,733.114537861431,None,733.114537861431,None,triatlon,734.4037344541866,None,734.4037344541866,None,down,2.3433140839915723,734.4037344541866,None,736.7686987069901,None,4,0.6830997874494642,736.7686987069901,None,1.2391775592695922,,,,,,,,,,,,,,,,,,,,,,,,,,,093503,2022_Apr_22_1418,palt,2021.1.2,51.931022511869465,
9,szilva,kecske,,,,,,,,,2,0,2,0,,,,,0,3,3,8,,,,,,,,,737.4849260859191,None,,,,,,,,,,,szilva,738.5026911483146,None,4,738.5026911483146,None,738.5026911483146,None,738.5026911483146,None, kecske,739.288949341746,None,739.288949341746,None,down,2.561666266527027,739.288949341746,None,741.8846572509501,None,4,0.5440741241909564,741.8846572509501,None,0.7562077105976641,,,,,,,,,,,,,,,,,,,,,,,,,,,093503,2022_Apr_22_1418,palt,2021.1.2,51.931022511869465,
7,csavarhúzó,hering,,,,,,,,,2,0,2,0,,,,,0,4,4,6,,,,,,,,,742.4606127594598,None,,,,,,,,,,,csavarhúzó,743.4824193650857,None,4,743.4824193650857,None,743.4824193650857,None,743.4824193650857,None, hering,749.0662931257393,None,749.0662931257393,None,down,4.9764660585206,749.0662931257393,None,754.0688505407888,None,4,1.4440603153780103,754.0688505407888,None,5.537236623233184,,,,,,,,,,,,,,,,,,,,,,,,,,,093503,2022_Apr_22_1418,palt,2021.1.2,51.931022511869465,
8,szalvéta,puska,,,,,,,,,2,0,2,0,,,,,0,5,5,7,,,,,,,,,755.5520579991862,None,,,,,,,,,,,szalvéta,756.5712499641813,None,4,756.5712499641813,None,756.5712499641813,None,756.5712499641813,None, puska,757.5145324498881,None,757.5145324498881,None,down,2.2560969919431955,757.5145324498881,None,759.8030190125573,None,4,0.6514516589231789,759.8030190125573,None,0.9056847826577723,,,,,,,,,,,,,,,,,,,,,,,,,,,093503,2022_Apr_22_1418,palt,2021.1.2,51.931022511869465,
5,karton,hentes,,,,,,,,,2,0,2,0,,,,,0,6,6,4,,,,,,,,,760.489492920693,None,,,,,,,,,,,karton,761.512293195352,None,4,761.512293195352,None,761.512293195352,None,761.512293195352,None, hentes,762.4538968624547,None,762.4538968624547,None,down,1.7488032428082079,762.4538968624547,None,764.2349170667585,None,4,0.6126599977724254,764.2349170667585,None,0.8965305862948298,,,,,,,,,,,,,,,,,,,,,,,,,,,093503,2022_Apr_22_1418,palt,2021.1.2,51.931022511869465,
10,málna,dominó,,,,,,,,,2,0,2,0,,,,,0,7,7,9,,,,,,,,,764.8762413866352,None,,,,,,,,,,,dominó,765.8953272979707,None,4,765.8953272979707,None,765.8953272979707,None,765.8953272979707,None, málna,766.914449597476,None,766.914449597476,None,down,3.352077032905072,766.914449597476,None,770.2850104311947,None,4,0.58535913284868,770.2850104311947,None,0.9721060434821993,,,,,,,,,,,,,,,,,,,,,,,,,,,093503,2022_Apr_22_1418,palt,2021.1.2,51.931022511869465,
3,fogó,limonádé,,,,,,,,,2,0,2,0,,,,,0,8,8,2,,,,,,,,,770.9015166594181,None,,,,,,,,,,,fogó,771.9318346085493,None,4,771.9318346085493,None,771.9318346085493,None,771.9318346085493,None,limonádé,772.8731045643799,None,772.8731045643799,None,down,2.625366833526641,772.8731045643799,None,775.530126368627,None,4,0.7544100871309638,775.530126368627,None,0.8975485141854733,,,,,,,,,,,,,,,,,,,,,,,,,,,093503,2022_Apr_22_1418,palt,2021.1.2,51.931022511869465,
2,kötény,tisztás,,,,,,,,,2,0,2,0,,,,,0,9,9,1,,,,,,,,,776.3254205754492,None,,,,,,,,,,,tisztás,777.3447898149025,None,None,777.3447898149025,None,777.3447898149025,None,777.3447898149025,None, ,792.333241793327,None,792.333241793327,None,down,2.33307011728175,792.333241793327,None,794.7252226502169,None,4,1.3450575922615826,794.7252226502169,None,,,,,,,,,,,,,,,,,,,,,,,,,,,,093503,2022_Apr_22_1418,palt,2021.1.2,51.931022511869465,
,,,,,,,,,,,2,0,2,0,,,,,,,,,,,,,,,,,,,,,,,,,,,,,,,,,,,,,,,,,,,,,,,,,,,,,,,,,,,,,,,,,,,,,,,,,,,4,14.094048683997244,796.1442477907985,None,796.1442477907985,None,093503,2022_Apr_22_1418,palt,2021.1.2,51.931022511869465,
2,kötény,tisztás,,,,,,,,,3,0,3,0,0,0,0,1,,,,,,,,,,,,,814.281909374753,None,815.2828750533517,None,815.2828750533517,None,,,,,,,,,,,,,,,,,,,,,,,,,,,,,,,,,,,,,,,810.2690660068765,None,,,,,,,,,,,,,,,,,,,093503,2022_Apr_22_1418,palt,2021.1.2,51.931022511869465,
5,karton,hentes,,,,,,,,,3,0,3,0,0,1,1,4,,,,,,,,,,,,,821.2796583021991,None,822.293007057393,None,822.293007057393,None,,,,,,,,,,,,,,,,,,,,,,,,,,,,,,,,,,,,,,,,,,,,,,,,,,,,,,,,,,,093503,2022_Apr_22_1418,palt,2021.1.2,51.931022511869465,
3,fogó,limonádé,,,,,,,,,3,0,3,0,0,2,2,2,,,,,,,,,,,,,828.2665263193194,None,829.2810556590557,None,829.2810556590557,None,,,,,,,,,,,,,,,,,,,,,,,,,,,,,,,,,,,,,,,,,,,,,,,,,,,,,,,,,,,093503,2022_Apr_22_1418,palt,2021.1.2,51.931022511869465,
10,málna,dominó,,,,,,,,,3,0,3,0,0,3,3,9,,,,,,,,,,,,,835.2647856099065,None,836.2810547261033,None,836.2810547261033,None,,,,,,,,,,,,,,,,,,,,,,,,,,,,,,,,,,,,,,,,,,,,,,,,,,,,,,,,,,,093503,2022_Apr_22_1418,palt,2021.1.2,51.931022511869465,
9,szilva,kecske,,,,,,,,,3,0,3,0,0,4,4,8,,,,,,,,,,,,,842.2649523101281,None,843.2835210158955,None,843.2835210158955,None,,,,,,,,,,,,,,,,,,,,,,,,,,,,,,,,,,,,,,,,,,,,,,,,,,,,,,,,,,,093503,2022_Apr_22_1418,palt,2021.1.2,51.931022511869465,
1,bagoly,kirakó,,,,,,,,,3,0,3,0,0,5,5,0,,,,,,,,,,,,,849.2791364314035,None,850.2815470509231,None,850.2815470509231,None,,,,,,,,,,,,,,,,,,,,,,,,,,,,,,,,,,,,,,,,,,,,,,,,,,,,,,,,,,,093503,2022_Apr_22_1418,palt,2021.1.2,51.931022511869465,
7,csavarhúzó,hering,,,,,,,,,3,0,3,0,0,6,6,6,,,,,,,,,,,,,856.2647019489668,None,857.2814742752817,None,857.2814742752817,None,,,,,,,,,,,,,,,,,,,,,,,,,,,,,,,,,,,,,,,,,,,,,,,,,,,,,,,,,,,093503,2022_Apr_22_1418,palt,2021.1.2,51.931022511869465,
6,menta,triatlon,,,,,,,,,3,0,3,0,0,7,7,5,,,,,,,,,,,,,863.2781726191752,None,864.2913148652297,None,864.2913148652297,None,,,,,,,,,,,,,,,,,,,,,,,,,,,,,,,,,,,,,,,,,,,,,,,,,,,,,,,,,,,093503,2022_Apr_22_1418,palt,2021.1.2,51.931022511869465,
4,mocsár,ananász,,,,,,,,,3,0,3,0,0,8,8,3,,,,,,,,,,,,,870.2645980725065,None,871.2810705874581,None,871.2810705874581,None,,,,,,,,,,,,,,,,,,,,,,,,,,,,,,,,,,,,,,,,,,,,,,,,,,,,,,,,,,,093503,2022_Apr_22_1418,palt,2021.1.2,51.931022511869465,
8,szalvéta,puska,,,,,,,,,3,0,3,0,0,9,9,7,,,,,,,,,,,,,877.2648036484607,None,878.2802852934692,None,878.2802852934692,None,,,,,,,,,,,,,,,,,,,,,,,,,,,,,,,,,,,,,,,,,,,,,,,,,,,,,,,,,,,093503,2022_Apr_22_1418,palt,2021.1.2,51.931022511869465,
9,szilva,kecske,,,,,,,,,3,0,3,0,,,,,0,0,0,8,,,,,,,,,891.9999483725987,None,,,,,,,,,,,szilva,892.9938146816567,None,4,892.9938146816567,None,892.9938146816567,None,892.9938146816567,None,kecske,893.9812944505829,None,893.9812944505829,None,down,2.764211178990081,893.9812944505829,None,896.7920286275912,None,4,0.6064637943636626,896.7920286275912,None,0.9566831791307777,,,,,,,887.9742236940656,None,884.2788257349748,None,u,1.826783410506323,884.2788257349748,None,886.1486143369693,None,4,1.7829167284071445,886.1486143369693,None,,,,,,,093503,2022_Apr_22_1418,palt,2021.1.2,51.931022511869465,
10,málna,dominó,,,,,,,,,3,0,3,0,,,,,0,1,1,9,,,,,,,,,897.4305000752211,None,,,,,,,,,,,dominó,898.4494845981244,None,4,898.4494845981244,None,898.4494845981244,None,898.4494845981244,None,málna,900.0123924068175,None,900.0123924068175,None,down,1.8854360138066113,900.0123924068175,None,901.9307395510841,None,4,0.5767292950768024,901.9307395510841,None,1.5371700676623732,,,,,,,,,,,,,,,,,,,,,,,,,,,093503,2022_Apr_22_1418,palt,2021.1.2,51.931022511869465,
3,fogó,limonádé,,,,,,,,,3,0,3,0,,,,,0,2,2,2,,,,,,,,,902.533346851822,None,,,,,,,,,,,fogó,903.5483371047303,None,4,903.5483371047303,None,903.5483371047303,None,903.5483371047303,None,limonádé,904.251915495377,None,904.251915495377,None,down,2.8614962075371295,904.251915495377,None,907.1410966622643,None,4,0.5173224986065179,907.1410966622643,None,0.6730725928209722,,,,,,,,,,,,,,,,,,,,,,,,,,,093503,2022_Apr_22_1418,palt,2021.1.2,51.931022511869465,
2,kötény,tisztás,,,,,,,,,3,0,3,0,,,,,0,3,3,1,,,,,,,,,907.6911719883792,None,,,,,,,,,,,tisztás,908.7104146475904,None,4,908.7104146475904,None,908.7104146475904,None,908.7104146475904,None, kötény,916.2286897625308,None,916.2286897625308,None,down,2.1966566066257656,916.2286897625308,None,918.4586437705439,None,4,0.7416886342689395,918.4586437705439,None,7.478927683318034,,,,,,,,,,,,,,,,,,,,,,,,,,,093503,2022_Apr_22_1418,palt,2021.1.2,51.931022511869465,
8,szalvéta,puska,,,,,,,,,3,0,3,0,,,,,0,4,4,7,,,,,,,,,919.2390730606858,None,,,,,,,,,,,szalvéta,920.2603214075789,None,4,920.2603214075789,None,920.2603214075789,None,920.2603214075789,None,puska,920.9112278702669,None,920.9112278702669,None,down,2.4103856617584825,920.9112278702669,None,923.3580045257695,None,4,0.4572308633942157,923.3580045257695,None,0.6112480233423412,,,,,,,,,,,,,,,,,,,,,,,,,,,093503,2022_Apr_22_1418,palt,2021.1.2,51.931022511869465,
4,mocsár,ananász,,,,,,,,,3,0,3,0,,,,,0,5,5,3,,,,,,,,,923.8606132571585,None,,,,,,,,,,,ananász,924.8770329006948,None,4,924.8770329006948,None,924.8770329006948,None,924.8770329006948,None,mocsár,925.4285491248593,None,925.4285491248593,None,down,1.8445773967541754,925.4285491248593,None,927.308447338175,None,4,0.545736770844087,927.308447338175,None,0.5145159664098173,,,,,,,,,,,,,,,,,,,,,,,,,,,093503,2022_Apr_22_1418,palt,2021.1.2,51.931022511869465,
7,csavarhúzó,hering,,,,,,,,,3,0,3,0,,,,,0,6,6,6,,,,,,,,,927.8753124070354,None,,,,,,,,,,,csavarhúzó,928.9058611239307,None,4,928.9058611239307,None,928.9058611239307,None,928.9058611239307,None, hering,932.496352503309,None,932.496352503309,None,down,2.0888520588632673,932.496352503309,None,934.617683702847,None,4,0.4863623189739883,934.617683702847,None,3.5453837770037353,,,,,,,,,,,,,,,,,,,,,,,,,,,093503,2022_Apr_22_1418,palt,2021.1.2,51.931022511869465,
6,menta,triatlon,,,,,,,,,3,0,3,0,,,,,0,7,7,5,,,,,,,,,935.1370831099339,None,,,,,,,,,,,menta,936.1602681009099,None,4,936.1602681009099,None,936.1602681009099,None,936.1602681009099,None,triatlon,937.3934419702273,None,937.3934419702273,None,down,2.855641179252416,937.3934419702273,None,940.2768763396889,None,4,0.5174263752996922,940.2768763396889,None,1.194747020257637,,,,,,,,,,,,,,,,,,,,,,,,,,,093503,2022_Apr_22_1418,palt,2021.1.2,51.931022511869465,
5,karton,hentes,,,,,,,,,3,0,3,0,,,,,0,8,8,4,,,,,,,,,940.8224840420298,None,,,,,,,,,,,karton,941.8434621235356,None,4,941.8434621235356,None,941.8434621235356,None,941.8434621235356,None,hentes,942.7133082619403,None,942.7133082619403,None,down,1.8237075458746403,942.7133082619403,None,944.578496129252,None,4,0.5886614110786468,944.578496129252,None,0.8266092464327812,,,,,,,,,,,,,,,,,,,,,,,,,,,093503,2022_Apr_22_1418,palt,2021.1.2,51.931022511869465,
1,bagoly,kirakó,,,,,,,,,3,0,3,0,,,,,0,9,9,0,,,,,,,,,945.207542803837,None,,,,,,,,,,,kirakó,946.2290866081603,None,4,946.2290866081603,None,946.2290866081603,None,946.2290866081603,None,bagoly,947.0655028556939,None,947.0655028556939,None,down,2.0159316728822887,947.0655028556939,None,949.1133429703768,None,4,0.6080185209866613,949.1133429703768,None,0.7918445111718029,,,,,,,,,,,,,,,,,,,,,,,,,,,093503,2022_Apr_22_1418,palt,2021.1.2,51.931022511869465,
,,,,,,,,,,,3,0,3,0,,,,,,,,,,,,,,,,,,,,,,,,,,,,,,,,,,,,,,,,,,,,,,,,,,,,,,,,,,,,,,,,,,,,,,,,,,,4,4.901955180102959,949.7740816257428,None,949.7740816257428,None,093503,2022_Apr_22_1418,palt,2021.1.2,51.931022511869465,
