itemno,wordA,wordB,enc_gyak.thisRepN,enc_gyak.thisTrialN,enc_gyak.thisN,enc_gyak.thisIndex,rec_gyak.thisRepN,rec_gyak.thisTrialN,rec_gyak.thisN,rec_gyak.thisIndex,repeat_task.thisRepN,repeat_task.thisTrialN,repeat_task.thisN,repeat_task.thisIndex,enc_loop.thisRepN,enc_loop.thisTrialN,enc_loop.thisN,enc_loop.thisIndex,test_loop.thisRepN,test_loop.thisTrialN,test_loop.thisN,test_loop.thisIndex,int.started,int.stopped,int_key.keys,int_key.rt,int_key.started,int_key.stopped,prepare_gyak_text.started,prepare_gyak_text.stopped,fix.started,fix.stopped,word1.started,word1.stopped,word2.started,word2.stopped,gykrec_inst.started,gykrec_inst.stopped,gyakrec_inst.keys,gyakrec_inst.rt,gyakrec_inst.started,gyakrec_inst.stopped,cueword,cueword1.started,cueword1.stopped,cue_resp.keys,cue_resp.rt,cue_resp.started,cue_resp.stopped,cue_cont_text.started,cue_cont_text.stopped,cue_space.started,cue_space.stopped,test_ansbox.text,test_ansbox.started,test_ansbox.stopped,ans_text.started,ans_text.stopped,ans_continue.keys,ans_continue.rt,ans_continue.started,ans_continue.stopped,feedback_text.started,feedback_text.stopped,feedback_cont.keys,feedback_cont.rt,feedback_cont.started,feedback_cont.stopped,main_prep.started,main_prep.stopped,main_prep_resp.keys,main_prep_resp.rt,main_prep_resp.started,main_prep_resp.stopped,preparation.started,preparation.stopped,break_text.started,break_text.stopped,key_resp.keys,key_resp.rt,key_resp.started,key_resp.stopped,test_instruction.started,test_instruction.stopped,test_i_key.keys,test_i_key.rt,test_i_key.started,test_i_key.stopped,rep_routine.keys,rep_routine.rt,rep_routine.started,rep_routine.stopped,encrep_textbox.started,encrep_textbox.stopped,Résztvevő kódja,date,expName,psychopyVersion,frameRate,
,,,,,,,,,,,,,,,,,,,,,,,26.606222857022658,None,4,118.14103811304085,26.606222857022658,None,,,,,,,,,,,,,,,,,,,,,,,,,,,,,,,,,,,,,,,,,,,,,,,,,,,,,,,,,,,,,,,,,,,728692,2022_May_11_1839,palt,2021.1.2,52.70393157180613,
4,kard,harcsa,0,0,0,3,,,,,,,,,,,,,,,,,,,,,,,144.77517127105966,None,147.79723745817319,None,148.79949691682123,None,148.79949691682123,None,,,,,,,,,,,,,,,,,,,,,,,,,,,,,,,,,,,,,,,,,,,,,,,,,,,,,,,,,,,728692,2022_May_11_1839,palt,2021.1.2,52.70393157180613,
2,lepke,szintetizátor,0,1,1,1,,,,,,,,,,,,,,,,,,,,,,,,,154.78114880644716,None,155.79958773055114,None,155.79958773055114,None,,,,,,,,,,,,,,,,,,,,,,,,,,,,,,,,,,,,,,,,,,,,,,,,,,,,,,,,,,,728692,2022_May_11_1839,palt,2021.1.2,52.70393157180613,
1,sapka,beton,0,2,2,0,,,,,,,,,,,,,,,,,,,,,,,,,161.78362223738804,None,162.79026221553795,None,162.79026221553795,None,,,,,,,,,,,,,,,,,,,,,,,,,,,,,,,,,,,,,,,,,,,,,,,,,,,,,,,,,,,728692,2022_May_11_1839,palt,2021.1.2,52.70393157180613,
3,majoránna,szikla,0,3,3,2,,,,,,,,,,,,,,,,,,,,,,,,,168.77925695688464,None,169.80350267421454,None,169.80350267421454,None,,,,,,,,,,,,,,,,,,,,,,,,,,,,,,,,,,,,,,,,,,,,,,,,,,,,,,,,,,,728692,2022_May_11_1839,palt,2021.1.2,52.70393157180613,
,,,,,,,,,,,,,,,,,,,,,,,,,,,,,,,,,,,,,175.78349752398208,None,4,11.889413417782634,175.78349752398208,None,,,,,,,,,,,,,,,,,,,,,,,,,,,,,,,,,,,,,,,,,,,,,,,,,,,,,728692,2022_May_11_1839,palt,2021.1.2,52.70393157180613,
1,sapka,beton,,,,,0,0,0,0,,,,,,,,,,,,,,,,,,,,,187.715132183861,None,,,,,,,,,,,sapka,188.73277710960247,None,4,4.7387882333714515,188.73277710960247,None,188.73277710960247,None,188.73277710960247,None,beton,193.53634136286564,None,193.53634136286564,None,down,2.3401693489868194,193.53634136286564,None,195.92739067226648,None,4,1.8231374160386622,195.92739067226648,None,,,,,,,,,,,,,,,,,,,,,,,,,,,728692,2022_May_11_1839,palt,2021.1.2,52.70393157180613,
4,kard,harcsa,,,,,0,1,1,3,,,,,,,,,,,,,,,,,,,,,197.79568553809077,None,,,,,,,,,,,kard,198.81259058066644,None,4,3.749136647209525,198.81259058066644,None,198.81259058066644,None,198.81259058066644,None, harcsa,202.61095699039288,None,202.61095699039288,None,down,2.7853735119570047,202.61095699039288,None,205.43739480222575,None,4,0.8619186209980398,205.43739480222575,None,,,,,,,,,,,,,,,,,,,,,,,,,,,728692,2022_May_11_1839,palt,2021.1.2,52.70393157180613,
3,majoránna,szikla,,,,,0,2,2,2,,,,,,,,,,,,,,,,,,,,,206.33950566221029,None,,,,,,,,,,,majoránna,207.3660500247497,None,4,1.9072384159080684,207.3660500247497,None,207.3660500247497,None,207.3660500247497,None, szikla,209.31440623360686,None,209.31440623360686,None,down,2.9460003385320306,209.31440623360686,None,212.2953832403291,None,4,0.6380471684969962,212.2953832403291,None,,,,,,,,,,,,,,,,,,,,,,,,,,,728692,2022_May_11_1839,palt,2021.1.2,52.70393157180613,
2,lepke,szintetizátor,,,,,0,3,3,1,,,,,,,,,,,,,,,,,,,,,212.96595790493302,None,,,,,,,,,,,szintetizátor,213.9969123324845,None,4,2.6414542391430587,213.9969123324845,None,213.9969123324845,None,213.9969123324845,None, lepke,216.6632265257649,None,216.6632265257649,None,down,2.253476736135781,216.6632265257649,None,218.95358422002755,None,4,20.00138988578692,218.95358422002755,None,,,,,,,,,,,,,,,,,,,,,,,,,,,728692,2022_May_11_1839,palt,2021.1.2,52.70393157180613,
,,,,,,,,,,,,,,,,,,,,,,,,,,,,,,,,,,,,,,,,,,,,,,,,,,,,,,,,,,,,,,,,,,,,,238.99792185798287,None,4,2.9380186803173274,238.99792185798287,None,,,,,,,,,,,,,,,,,,,,,728692,2022_May_11_1839,palt,2021.1.2,52.70393157180613,
7,csavarhúzó,hering,,,,,,,,,0,0,0,0,0,0,0,6,,,,,,,,,,,,,246.00450834305957,None,246.98214794439264,None,246.98214794439264,None,,,,,,,,,,,,,,,,,,,,,,,,,,,,,,,,,,,,,,,241.97073713410646,None,,,,,,,,,,,,,,,,,,,728692,2022_May_11_1839,palt,2021.1.2,52.70393157180613,
4,mocsár,ananász,,,,,,,,,0,0,0,0,0,1,1,3,,,,,,,,,,,,,252.96656374447048,None,253.977540390566,None,253.977540390566,None,,,,,,,,,,,,,,,,,,,,,,,,,,,,,,,,,,,,,,,,,,,,,,,,,,,,,,,,,,,728692,2022_May_11_1839,palt,2021.1.2,52.70393157180613,
5,karton,hentes,,,,,,,,,0,0,0,0,0,2,2,4,,,,,,,,,,,,,259.9663460403681,None,260.9771858435124,None,260.9771858435124,None,,,,,,,,,,,,,,,,,,,,,,,,,,,,,,,,,,,,,,,,,,,,,,,,,,,,,,,,,,,728692,2022_May_11_1839,palt,2021.1.2,52.70393157180613,
8,szalvéta,puska,,,,,,,,,0,0,0,0,0,3,3,7,,,,,,,,,,,,,266.97789804730564,None,267.99462799332105,None,267.99462799332105,None,,,,,,,,,,,,,,,,,,,,,,,,,,,,,,,,,,,,,,,,,,,,,,,,,,,,,,,,,,,728692,2022_May_11_1839,palt,2021.1.2,52.70393157180613,
9,szilva,kecske,,,,,,,,,0,0,0,0,0,4,4,8,,,,,,,,,,,,,273.963128994219,None,274.97864321782254,None,274.97864321782254,None,,,,,,,,,,,,,,,,,,,,,,,,,,,,,,,,,,,,,,,,,,,,,,,,,,,,,,,,,,,728692,2022_May_11_1839,palt,2021.1.2,52.70393157180613,
1,bagoly,kirakó,,,,,,,,,0,0,0,0,0,5,5,0,,,,,,,,,,,,,280.97949444130063,None,281.9968893181067,None,281.9968893181067,None,,,,,,,,,,,,,,,,,,,,,,,,,,,,,,,,,,,,,,,,,,,,,,,,,,,,,,,,,,,728692,2022_May_11_1839,palt,2021.1.2,52.70393157180613,
10,málna,dominó,,,,,,,,,0,0,0,0,0,6,6,9,,,,,,,,,,,,,287.9632770330645,None,288.98101992555894,None,288.98101992555894,None,,,,,,,,,,,,,,,,,,,,,,,,,,,,,,,,,,,,,,,,,,,,,,,,,,,,,,,,,,,728692,2022_May_11_1839,palt,2021.1.2,52.70393157180613,
3,fogó,limonádé,,,,,,,,,0,0,0,0,0,7,7,2,,,,,,,,,,,,,294.9767264877446,None,295.97824046504684,None,295.97824046504684,None,,,,,,,,,,,,,,,,,,,,,,,,,,,,,,,,,,,,,,,,,,,,,,,,,,,,,,,,,,,728692,2022_May_11_1839,palt,2021.1.2,52.70393157180613,
2,kötény,tisztás,,,,,,,,,0,0,0,0,0,8,8,1,,,,,,,,,,,,,301.98023836757056,None,302.97180512873456,None,302.97180512873456,None,,,,,,,,,,,,,,,,,,,,,,,,,,,,,,,,,,,,,,,,,,,,,,,,,,,,,,,,,,,728692,2022_May_11_1839,palt,2021.1.2,52.70393157180613,
6,menta,triatlon,,,,,,,,,0,0,0,0,0,9,9,5,,,,,,,,,,,,,308.9776965153869,None,309.98669018712826,None,309.98669018712826,None,,,,,,,,,,,,,,,,,,,,,,,,,,,,,,,,,,,,,,,,,,,,,,,,,,,,,,,,,,,728692,2022_May_11_1839,palt,2021.1.2,52.70393157180613,
7,csavarhúzó,hering,,,,,,,,,0,0,0,0,,,,,0,0,0,6,,,,,,,,,325.14696588763036,None,,,,,,,,,,,hering,326.1326854249928,None,None,,326.1326854249928,None,326.1326854249928,None,326.1326854249928,None, ,341.14084404543974,None,341.14084404543974,None,down,2.445790720405057,341.14084404543974,None,343.61881891125813,None,4,5.277725252322853,343.61881891125813,None,,,,,,,321.12890545791015,None,315.98063116823323,None,u,2.1823322465643287,315.98063116823323,None,318.2215180702042,None,4,2.8723911261186004,318.2215180702042,None,,,,,,,728692,2022_May_11_1839,palt,2021.1.2,52.70393157180613,
3,fogó,limonádé,,,,,,,,,0,0,0,0,,,,,0,1,1,2,,,,,,,,,348.9289139795583,None,,,,,,,,,,,fogó,349.9475320430938,None,4,6.0808195755817,349.9475320430938,None,349.9475320430938,None,349.9475320430938,None, lepke,356.0670037558302,None,356.0670037558302,None,down,2.607535613235086,356.0670037558302,None,358.70511903450824,None,4,5.350311876740307,358.70511903450824,None,,,,,,,,,,,,,,,,,,,,,,,,,,,728692,2022_May_11_1839,palt,2021.1.2,52.70393157180613,
9,szilva,kecske,,,,,,,,,0,0,0,0,,,,,0,2,2,8,,,,,,,,,364.0829005166888,None,,,,,,,,,,,szilva,365.0965738957748,None,4,8.565665807807818,365.0965738957748,None,365.0965738957748,None,365.0965738957748,None, ,373.71875478187576,None,373.71875478187576,None,down,1.6914907512255013,373.71875478187576,None,375.4437732244842,None,4,2.7126463127788156,375.4437732244842,None,,,,,,,,,,,,,,,,,,,,,,,,,,,728692,2022_May_11_1839,palt,2021.1.2,52.70393157180613,
4,mocsár,ananász,,,,,,,,,0,0,0,0,,,,,0,3,3,3,,,,,,,,,378.19315525563434,None,,,,,,,,,,,mocsár,379.21209863130935,None,4,2.109930048463866,379.21209863130935,None,379.21209863130935,None,379.21209863130935,None, ananász,381.3668241186533,None,381.3668241186533,None,down,3.019264333881438,381.3668241186533,None,384.4241972626187,None,4,1.1040016522165388,384.4241972626187,None,,,,,,,,,,,,,,,,,,,,,,,,,,,728692,2022_May_11_1839,palt,2021.1.2,52.70393157180613,
10,málna,dominó,,,,,,,,,0,0,0,0,,,,,0,4,4,9,,,,,,,,,385.54895825427957,None,,,,,,,,,,,málna,386.56273364345543,None,4,10.617487183539197,386.56273364345543,None,386.56273364345543,None,386.56273364345543,None, ,397.21883097826503,None,397.21883097826503,None,down,2.3190010364633054,397.21883097826503,None,399.57017757208087,None,4,1.8876789372880012,399.57017757208087,None,,,,,,,,,,,,,,,,,,,,,,,,,,,728692,2022_May_11_1839,palt,2021.1.2,52.70393157180613,
8,szalvéta,puska,,,,,,,,,0,0,0,0,,,,,0,5,5,7,,,,,,,,,401.4890488567762,None,,,,,,,,,,,puska,402.50494966073893,None,None,,402.50494966073893,None,402.50494966073893,None,402.50494966073893,None, ,417.50436776853167,None,417.50436776853167,None,down,1.9052952504716814,417.50436776853167,None,419.4393382789567,None,4,6.139133823337033,419.4393382789567,None,,,,,,,,,,,,,,,,,,,,,,,,,,,728692,2022_May_11_1839,palt,2021.1.2,52.70393157180613,
2,kötény,tisztás,,,,,,,,,0,0,0,0,,,,,0,6,6,1,,,,,,,,,425.61721349833533,None,,,,,,,,,,,tisztás,426.64655069471337,None,4,7.703765536192805,426.64655069471337,None,426.64655069471337,None,426.64655069471337,None, ,434.39537758007646,None,434.39537758007646,None,down,1.941931135719642,434.39537758007646,None,436.3782473693136,None,4,3.9889875883236527,436.3782473693136,None,,,,,,,,,,,,,,,,,,,,,,,,,,,728692,2022_May_11_1839,palt,2021.1.2,52.70393157180613,
5,karton,hentes,,,,,,,,,0,0,0,0,,,,,0,7,7,4,,,,,,,,,440.40140301035717,None,,,,,,,,,,,karton,441.41427523782477,None,4,2.6509486304130405,441.41427523782477,None,441.41427523782477,None,441.41427523782477,None, hering,444.1072034589015,None,444.1072034589015,None,down,3.205936980433762,444.1072034589015,None,447.35280023608357,None,4,6.318603881401941,447.35280023608357,None,,,,,,,,,,,,,,,,,,,,,,,,,,,728692,2022_May_11_1839,palt,2021.1.2,52.70393157180613,
1,bagoly,kirakó,,,,,,,,,0,0,0,0,,,,,0,8,8,0,,,,,,,,,453.7131031807512,None,,,,,,,,,,,bagoly,454.7298216195777,None,4,9.769285171292722,454.7298216195777,None,454.7298216195777,None,454.7298216195777,None, ,464.52650175476447,None,464.52650175476447,None,down,1.6024167656432837,464.52650175476447,None,466.1702135866508,None,4,2.2237342989537865,466.1702135866508,None,,,,,,,,,,,,,,,,,,,,,,,,,,,728692,2022_May_11_1839,palt,2021.1.2,52.70393157180613,
6,menta,triatlon,,,,,,,,,0,0,0,0,,,,,0,9,9,5,,,,,,,,,468.42170983646065,None,,,,,,,,,,,menta,469.44436475797556,None,4,11.770458596991375,469.44436475797556,None,469.44436475797556,None,469.44436475797556,None, ,481.2453150055371,None,481.2453150055371,None,down,1.8595030372962356,481.2453150055371,None,483.13029316673055,None,4,2.482342011993751,483.13029316673055,None,,,,,,,,,,,,,,,,,,,,,,,,,,,728692,2022_May_11_1839,palt,2021.1.2,52.70393157180613,
,,,,,,,,,,,0,0,0,0,,,,,,,,,,,,,,,,,,,,,,,,,,,,,,,,,,,,,,,,,,,,,,,,,,,,,,,,,,,,,,,,,,,,,,,,,,,4,12.854433950269595,485.6593852904625,None,485.6593852904625,None,728692,2022_May_11_1839,palt,2021.1.2,52.70393157180613,
3,fogó,limonádé,,,,,,,,,1,0,1,0,0,0,0,2,,,,,,,,,,,,,502.56918390793726,None,503.5732590195257,None,503.5732590195257,None,,,,,,,,,,,,,,,,,,,,,,,,,,,,,,,,,,,,,,,498.5520791995805,None,,,,,,,,,,,,,,,,,,,728692,2022_May_11_1839,palt,2021.1.2,52.70393157180613,
7,csavarhúzó,hering,,,,,,,,,1,0,1,0,0,1,1,6,,,,,,,,,,,,,509.5597697561607,None,510.5786845192779,None,510.5786845192779,None,,,,,,,,,,,,,,,,,,,,,,,,,,,,,,,,,,,,,,,,,,,,,,,,,,,,,,,,,,,728692,2022_May_11_1839,palt,2021.1.2,52.70393157180613,
8,szalvéta,puska,,,,,,,,,1,0,1,0,0,2,2,7,,,,,,,,,,,,,516.561679021921,None,517.5708166894037,None,517.5708166894037,None,,,,,,,,,,,,,,,,,,,,,,,,,,,,,,,,,,,,,,,,,,,,,,,,,,,,,,,,,,,728692,2022_May_11_1839,palt,2021.1.2,52.70393157180613,
2,kötény,tisztás,,,,,,,,,1,0,1,0,0,3,3,1,,,,,,,,,,,,,523.5603196148295,None,524.5640796774533,None,524.5640796774533,None,,,,,,,,,,,,,,,,,,,,,,,,,,,,,,,,,,,,,,,,,,,,,,,,,,,,,,,,,,,728692,2022_May_11_1839,palt,2021.1.2,52.70393157180613,
10,málna,dominó,,,,,,,,,1,0,1,0,0,4,4,9,,,,,,,,,,,,,530.5582178360783,None,531.6178510605823,None,531.6178510605823,None,,,,,,,,,,,,,,,,,,,,,,,,,,,,,,,,,,,,,,,,,,,,,,,,,,,,,,,,,,,728692,2022_May_11_1839,palt,2021.1.2,52.70393157180613,
6,menta,triatlon,,,,,,,,,1,0,1,0,0,5,5,5,,,,,,,,,,,,,537.5590031263418,None,538.5773534136824,None,538.5773534136824,None,,,,,,,,,,,,,,,,,,,,,,,,,,,,,,,,,,,,,,,,,,,,,,,,,,,,,,,,,,,728692,2022_May_11_1839,palt,2021.1.2,52.70393157180613,
1,bagoly,kirakó,,,,,,,,,1,0,1,0,0,6,6,0,,,,,,,,,,,,,544.5586871441919,None,545.5693630473688,None,545.5693630473688,None,,,,,,,,,,,,,,,,,,,,,,,,,,,,,,,,,,,,,,,,,,,,,,,,,,,,,,,,,,,728692,2022_May_11_1839,palt,2021.1.2,52.70393157180613,
4,mocsár,ananász,,,,,,,,,1,0,1,0,0,7,7,3,,,,,,,,,,,,,551.5615779450163,None,552.5629348643124,None,552.5629348643124,None,,,,,,,,,,,,,,,,,,,,,,,,,,,,,,,,,,,,,,,,,,,,,,,,,,,,,,,,,,,728692,2022_May_11_1839,palt,2021.1.2,52.70393157180613,
5,karton,hentes,,,,,,,,,1,0,1,0,0,8,8,4,,,,,,,,,,,,,558.5574067325797,None,559.5656944205984,None,559.5656944205984,None,,,,,,,,,,,,,,,,,,,,,,,,,,,,,,,,,,,,,,,,,,,,,,,,,,,,,,,,,,,728692,2022_May_11_1839,palt,2021.1.2,52.70393157180613,
9,szilva,kecske,,,,,,,,,1,0,1,0,0,9,9,8,,,,,,,,,,,,,565.560595166171,None,566.5786192081869,None,566.5786192081869,None,,,,,,,,,,,,,,,,,,,,,,,,,,,,,,,,,,,,,,,,,,,,,,,,,,,,,,,,,,,728692,2022_May_11_1839,palt,2021.1.2,52.70393157180613,
8,szalvéta,puska,,,,,,,,,1,0,1,0,,,,,0,0,0,7,,,,,,,,,582.7669712868519,None,,,,,,,,,,,puska,583.7660168092698,None,4,5.102383176796138,583.7660168092698,None,583.7660168092698,None,583.7660168092698,None,szalvéta,588.9163605330978,None,588.9163605330978,None,down,3.771363935666159,588.9163605330978,None,592.7268387610093,None,4,1.6964273494668305,592.7268387610093,None,,,,,,,578.7427989670541,None,572.5616177539341,None,u,1.422369479900226,572.5616177539341,None,574.0237064328976,None,4,4.691858982434496,574.0237064328976,None,,,,,,,728692,2022_May_11_1839,palt,2021.1.2,52.70393157180613,
2,kötény,tisztás,,,,,,,,,1,0,1,0,,,,,0,1,1,1,,,,,,,,,594.4644619659521,None,,,,,,,,,,,tisztás,595.4888261763845,None,4,5.350367857841775,595.4888261763845,None,595.4888261763845,None,595.4888261763845,None, kerék,600.8757076943293,None,600.8757076943293,None,down,4.819499889854342,600.8757076943293,None,605.7364787030965,None,4,2.480584828183055,605.7364787030965,None,,,,,,,,,,,,,,,,,,,,,,,,,,,728692,2022_May_11_1839,palt,2021.1.2,52.70393157180613,
5,karton,hentes,,,,,,,,,1,0,1,0,,,,,0,2,2,4,,,,,,,,,608.2587949389126,None,,,,,,,,,,,karton,609.2729286067188,None,4,2.9382562888786197,609.2729286067188,None,609.2729286067188,None,609.2729286067188,None,hentes,612.2368942070752,None,612.2368942070752,None,down,2.322185737779364,612.2368942070752,None,614.5989680199418,None,4,1.6174162740353495,614.5989680199418,None,,,,,,,,,,,,,,,,,,,,,,,,,,,728692,2022_May_11_1839,palt,2021.1.2,52.70393157180613,
3,fogó,limonádé,,,,,,,,,1,0,1,0,,,,,0,3,3,2,,,,,,,,,616.2509796689264,None,,,,,,,,,,,fogó,617.258965681307,None,4,9.085958638694137,617.258965681307,None,617.258965681307,None,617.258965681307,None, ,626.3794074216858,None,626.3794074216858,None,down,4.307416373398155,626.3794074216858,None,630.7283530491404,None,4,2.582367452327162,630.7283530491404,None,,,,,,,,,,,,,,,,,,,,,,,,,,,728692,2022_May_11_1839,palt,2021.1.2,52.70393157180613,
10,málna,dominó,,,,,,,,,1,0,1,0,,,,,0,4,4,9,,,,,,,,,633.3548105787486,None,,,,,,,,,,,málna,634.3754109945148,None,4,1.6873851611744612,634.3754109945148,None,634.3754109945148,None,634.3754109945148,None, dominó,636.1003451545257,None,636.1003451545257,None,down,5.386726636905223,636.1003451545257,None,641.5323181890417,None,4,1.054365404881537,641.5323181890417,None,,,,,,,,,,,,,,,,,,,,,,,,,,,728692,2022_May_11_1839,palt,2021.1.2,52.70393157180613,
6,menta,triatlon,,,,,,,,,1,0,1,0,,,,,0,5,5,5,,,,,,,,,642.6089460256044,None,,,,,,,,,,,menta,643.6219103110489,None,4,1.6266845639329404,643.6219103110489,None,643.6219103110489,None,643.6219103110489,None, triatlon,645.2907044659369,None,645.2907044659369,None,down,3.460089221363887,645.2907044659369,None,648.773323273519,None,4,0.6371520932298154,648.773323273519,None,,,,,,,,,,,,,,,,,,,,,,,,,,,728692,2022_May_11_1839,palt,2021.1.2,52.70393157180613,
1,bagoly,kirakó,,,,,,,,,1,0,1,0,,,,,0,6,6,0,,,,,,,,,649.4438534639776,None,,,,,,,,,,,bagoly,650.457897251239,None,4,7.349586610682309,650.457897251239,None,650.457897251239,None,650.457897251239,None, kirakó,657.8435785968322,None,657.8435785968322,None,down,3.0187956478912383,657.8435785968322,None,660.8897104286589,None,4,0.6477788572665304,660.8897104286589,None,,,,,,,,,,,,,,,,,,,,,,,,,,,728692,2022_May_11_1839,palt,2021.1.2,52.70393157180613,
9,szilva,kecske,,,,,,,,,1,0,1,0,,,,,0,7,7,8,,,,,,,,,661.5667521520518,None,,,,,,,,,,,szilva,662.5861421322916,None,4,7.651432244805619,662.5861421322916,None,662.5861421322916,None,662.5861421322916,None, ,670.2782346801832,None,670.2782346801832,None,down,1.9280985216610134,670.2782346801832,None,672.2447679461911,None,4,1.8546892863232642,672.2447679461911,None,,,,,,,,,,,,,,,,,,,,,,,,,,,728692,2022_May_11_1839,palt,2021.1.2,52.70393157180613,
4,mocsár,ananász,,,,,,,,,1,0,1,0,,,,,0,8,8,3,,,,,,,,,674.1334358823951,None,,,,,,,,,,,mocsár,675.1545905109961,None,4,2.087622831808403,675.1545905109961,None,675.1545905109961,None,675.1545905109961,None, ananász,677.2644655113108,None,677.2644655113108,None,down,2.4936333959922194,677.2644655113108,None,679.8024315694347,None,4,1.0699035755824298,679.8024315694347,None,,,,,,,,,,,,,,,,,,,,,,,,,,,728692,2022_May_11_1839,palt,2021.1.2,52.70393157180613,
7,csavarhúzó,hering,,,,,,,,,1,0,1,0,,,,,0,9,9,6,,,,,,,,,680.9008515968453,None,,,,,,,,,,,hering,681.9227342903614,None,4,6.812347373692319,681.9227342903614,None,681.9227342903614,None,681.9227342903614,None, csavarhúzó,688.764120916836,None,688.764120916836,None,down,5.922255029901862,688.764120916836,None,694.7211056761444,None,4,2.114831503247842,694.7211056761444,None,,,,,,,,,,,,,,,,,,,,,,,,,,,728692,2022_May_11_1839,palt,2021.1.2,52.70393157180613,
,,,,,,,,,,,1,0,1,0,,,,,,,,,,,,,,,,,,,,,,,,,,,,,,,,,,,,,,,,,,,,,,,,,,,,,,,,,,,,,,,,,,,,,,,,,,,4,10.081198691856116,696.8887105444446,None,696.8887105444446,None,728692,2022_May_11_1839,palt,2021.1.2,52.70393157180613,
10,málna,dominó,,,,,,,,,2,0,2,0,0,0,0,9,,,,,,,,,,,,,711.0287826729473,None,712.0180479895789,None,712.0180479895789,None,,,,,,,,,,,,,,,,,,,,,,,,,,,,,,,,,,,,,,,707.0010266308673,None,,,,,,,,,,,,,,,,,,,728692,2022_May_11_1839,palt,2021.1.2,52.70393157180613,
8,szalvéta,puska,,,,,,,,,2,0,2,0,0,1,1,7,,,,,,,,,,,,,718.0068639025558,None,719.0143824727274,None,719.0143824727274,None,,,,,,,,,,,,,,,,,,,,,,,,,,,,,,,,,,,,,,,,,,,,,,,,,,,,,,,,,,,728692,2022_May_11_1839,palt,2021.1.2,52.70393157180613,
1,bagoly,kirakó,,,,,,,,,2,0,2,0,0,2,2,0,,,,,,,,,,,,,725.0070909371134,None,726.0238855723292,None,726.0238855723292,None,,,,,,,,,,,,,,,,,,,,,,,,,,,,,,,,,,,,,,,,,,,,,,,,,,,,,,,,,,,728692,2022_May_11_1839,palt,2021.1.2,52.70393157180613,
3,fogó,limonádé,,,,,,,,,2,0,2,0,0,3,3,2,,,,,,,,,,,,,732.0080786920153,None,733.0184305270668,None,733.0184305270668,None,,,,,,,,,,,,,,,,,,,,,,,,,,,,,,,,,,,,,,,,,,,,,,,,,,,,,,,,,,,728692,2022_May_11_1839,palt,2021.1.2,52.70393157180613,
9,szilva,kecske,,,,,,,,,2,0,2,0,0,4,4,8,,,,,,,,,,,,,739.0088129772339,None,740.0177973187529,None,740.0177973187529,None,,,,,,,,,,,,,,,,,,,,,,,,,,,,,,,,,,,,,,,,,,,,,,,,,,,,,,,,,,,728692,2022_May_11_1839,palt,2021.1.2,52.70393157180613,
2,kötény,tisztás,,,,,,,,,2,0,2,0,0,5,5,1,,,,,,,,,,,,,746.0050420295447,None,747.0116614813451,None,747.0116614813451,None,,,,,,,,,,,,,,,,,,,,,,,,,,,,,,,,,,,,,,,,,,,,,,,,,,,,,,,,,,,728692,2022_May_11_1839,palt,2021.1.2,52.70393157180613,
5,karton,hentes,,,,,,,,,2,0,2,0,0,6,6,4,,,,,,,,,,,,,753.0049714311026,None,754.0049266461283,None,754.0049266461283,None,,,,,,,,,,,,,,,,,,,,,,,,,,,,,,,,,,,,,,,,,,,,,,,,,,,,,,,,,,,728692,2022_May_11_1839,palt,2021.1.2,52.70393157180613,
6,menta,triatlon,,,,,,,,,2,0,2,0,0,7,7,5,,,,,,,,,,,,,760.0085408471059,None,761.026750248624,None,761.026750248624,None,,,,,,,,,,,,,,,,,,,,,,,,,,,,,,,,,,,,,,,,,,,,,,,,,,,,,,,,,,,728692,2022_May_11_1839,palt,2021.1.2,52.70393157180613,
7,csavarhúzó,hering,,,,,,,,,2,0,2,0,0,8,8,6,,,,,,,,,,,,,767.0086490770336,None,768.0269971874077,None,768.0269971874077,None,,,,,,,,,,,,,,,,,,,,,,,,,,,,,,,,,,,,,,,,,,,,,,,,,,,,,,,,,,,728692,2022_May_11_1839,palt,2021.1.2,52.70393157180613,
4,mocsár,ananász,,,,,,,,,2,0,2,0,0,9,9,3,,,,,,,,,,,,,774.0074053641874,None,775.01824485627,None,775.01824485627,None,,,,,,,,,,,,,,,,,,,,,,,,,,,,,,,,,,,,,,,,,,,,,,,,,,,,,,,,,,,728692,2022_May_11_1839,palt,2021.1.2,52.70393157180613,
1,bagoly,kirakó,,,,,,,,,2,0,2,0,,,,,0,0,0,0,,,,,,,,,788.4027210539207,None,,,,,,,,,,,bagoly,789.3920152941719,None,4,3.636779508087784,789.3920152941719,None,789.3920152941719,None,789.3920152941719,None, kirakó,793.0628987876698,None,793.0628987876698,None,down,3.4138012647163123,793.0628987876698,None,796.4977965224534,None,4,1.2360946105327457,796.4977965224534,None,,,,,,,784.3813278838061,None,781.0082457023673,None,u,1.4045441709458828,781.0082457023673,None,782.4472763962112,None,4,1.898561348207295,782.4472763962112,None,,,,,,,728692,2022_May_11_1839,palt,2021.1.2,52.70393157180613,
9,szilva,kecske,,,,,,,,,2,0,2,0,,,,,0,1,1,8,,,,,,,,,797.7750114139635,None,,,,,,,,,,,szilva,798.7916471252684,None,None,,798.7916471252684,None,798.7916471252684,None,798.7916471252684,None, kert,813.785247243708,None,813.785247243708,None,down,4.003361041890457,813.785247243708,None,817.8217808080371,None,4,2.9778000803198665,817.8217808080371,None,,,,,,,,,,,,,,,,,,,,,,,,,,,728692,2022_May_11_1839,palt,2021.1.2,52.70393157180613,
6,menta,triatlon,,,,,,,,,2,0,2,0,,,,,0,2,2,5,,,,,,,,,820.8384466867428,None,,,,,,,,,,,menta,821.8583734636195,None,4,1.4720116367097944,821.8583734636195,None,821.8583734636195,None,821.8583734636195,None, triatlon,823.368025845848,None,823.368025845848,None,down,3.8762438686098903,823.368025845848,None,827.2759354128502,None,4,0.7913330090232193,827.2759354128502,None,,,,,,,,,,,,,,,,,,,,,,,,,,,728692,2022_May_11_1839,palt,2021.1.2,52.70393157180613,
2,kötény,tisztás,,,,,,,,,2,0,2,0,,,,,0,3,3,1,,,,,,,,,828.0909617925063,None,,,,,,,,,,,tisztás,829.0967869348824,None,4,5.468476742506027,829.0967869348824,None,829.0967869348824,None,829.0967869348824,None, kötény,834.5956135091837,None,834.5956135091837,None,down,3.5603939450811595,834.5956135091837,None,838.1917610156815,None,4,1.1742597746197134,838.1917610156815,None,,,,,,,,,,,,,,,,,,,,,,,,,,,728692,2022_May_11_1839,palt,2021.1.2,52.70393157180613,
4,mocsár,ananász,,,,,,,,,2,0,2,0,,,,,0,4,4,3,,,,,,,,,839.3912772769108,None,,,,,,,,,,,mocsár,840.3986985022202,None,4,1.4682512627914548,840.3986985022202,None,840.3986985022202,None,840.3986985022202,None, ananász,841.9073998280801,None,841.9073998280801,None,down,2.904648046940565,841.9073998280801,None,844.8395464040805,None,4,1.8183270862791687,844.8395464040805,None,,,,,,,,,,,,,,,,,,,,,,,,,,,728692,2022_May_11_1839,palt,2021.1.2,52.70393157180613,
8,szalvéta,puska,,,,,,,,,2,0,2,0,,,,,0,5,5,7,,,,,,,,,846.6915255840868,None,,,,,,,,,,,puska,847.704756712541,None,4,2.0402202296536416,847.704756712541,None,847.704756712541,None,847.704756712541,None, ,849.7913448275067,None,849.7913448275067,None,down,12.828594016376883,849.7913448275067,None,862.6673591735307,None,4,1.4533578075934201,862.6673591735307,None,,,,,,,,,,,,,,,,,,,,,,,,,,,728692,2022_May_11_1839,palt,2021.1.2,52.70393157180613,
7,csavarhúzó,hering,,,,,,,,,2,0,2,0,,,,,0,6,6,6,,,,,,,,,864.1400481811725,None,,,,,,,,,,,hering,865.1564571689814,None,4,1.5663099011871964,865.1564571689814,None,865.1564571689814,None,865.1564571689814,None, csavarhúzó,866.7783659247216,None,866.7783659247216,None,down,4.14566619344987,866.7783659247216,None,870.973025827203,None,4,0.9439570289105177,870.973025827203,None,,,,,,,,,,,,,,,,,,,,,,,,,,,728692,2022_May_11_1839,palt,2021.1.2,52.70393157180613,
5,karton,hentes,,,,,,,,,2,0,2,0,,,,,0,7,7,4,,,,,,,,,871.9468944808468,None,,,,,,,,,,,karton,872.9535089563578,None,4,2.6149795420933515,872.9535089563578,None,872.9535089563578,None,872.9535089563578,None, hentes,875.609558396507,None,875.609558396507,None,down,2.78603533282876,875.609558396507,None,878.4206418418325,None,4,0.6139432699419558,878.4206418418325,None,,,,,,,,,,,,,,,,,,,,,,,,,,,728692,2022_May_11_1839,palt,2021.1.2,52.70393157180613,
10,málna,dominó,,,,,,,,,2,0,2,0,,,,,0,8,8,9,,,,,,,,,879.0572860622779,None,,,,,,,,,,,málna,880.0720961680636,None,4,1.5147311103064567,880.0720961680636,None,880.0720961680636,None,880.0720961680636,None, dominó,881.6280047846958,None,881.6280047846958,None,down,2.91174458200112,881.6280047846958,None,884.5594338695519,None,4,0.8560692199971527,884.5594338695519,None,,,,,,,,,,,,,,,,,,,,,,,,,,,728692,2022_May_11_1839,palt,2021.1.2,52.70393157180613,
3,fogó,limonádé,,,,,,,,,2,0,2,0,,,,,0,9,9,2,,,,,,,,,885.4415374023374,None,,,,,,,,,,,fogó,886.456849160837,None,None,,886.456849160837,None,886.456849160837,None,886.456849160837,None, ,901.4592168496456,None,901.4592168496456,None,down,1.7364102816209197,901.4592168496456,None,903.243265165016,None,4,4.095903677865863,903.243265165016,None,,,,,,,,,,,,,,,,,,,,,,,,,,,728692,2022_May_11_1839,palt,2021.1.2,52.70393157180613,
,,,,,,,,,,,2,0,2,0,,,,,,,,,,,,,,,,,,,,,,,,,,,,,,,,,,,,,,,,,,,,,,,,,,,,,,,,,,,,,,,,,,,,,,,,,,,4,3.9601508006453514,907.3660425606649,None,907.3660425606649,None,728692,2022_May_11_1839,palt,2021.1.2,52.70393157180613,
8,szalvéta,puska,,,,,,,,,3,0,3,0,0,0,0,7,,,,,,,,,,,,,915.3733723501209,None,916.3737862992566,None,916.3737862992566,None,,,,,,,,,,,,,,,,,,,,,,,,,,,,,,,,,,,,,,,911.3512094402686,None,,,,,,,,,,,,,,,,,,,728692,2022_May_11_1839,palt,2021.1.2,52.70393157180613,
9,szilva,kecske,,,,,,,,,3,0,3,0,0,1,1,8,,,,,,,,,,,,,922.356015416095,None,923.3685564221814,None,923.3685564221814,None,,,,,,,,,,,,,,,,,,,,,,,,,,,,,,,,,,,,,,,,,,,,,,,,,,,,,,,,,,,728692,2022_May_11_1839,palt,2021.1.2,52.70393157180613,
1,bagoly,kirakó,,,,,,,,,3,0,3,0,0,2,2,0,,,,,,,,,,,,,929.3525427230634,None,930.357420852175,None,930.357420852175,None,,,,,,,,,,,,,,,,,,,,,,,,,,,,,,,,,,,,,,,,,,,,,,,,,,,,,,,,,,,728692,2022_May_11_1839,palt,2021.1.2,52.70393157180613,
2,kötény,tisztás,,,,,,,,,3,0,3,0,0,3,3,1,,,,,,,,,,,,,936.3524382249452,None,937.3549769669771,None,937.3549769669771,None,,,,,,,,,,,,,,,,,,,,,,,,,,,,,,,,,,,,,,,,,,,,,,,,,,,,,,,,,,,728692,2022_May_11_1839,palt,2021.1.2,52.70393157180613,
5,karton,hentes,,,,,,,,,3,0,3,0,0,4,4,4,,,,,,,,,,,,,943.356701184297,None,944.373686777195,None,944.373686777195,None,,,,,,,,,,,,,,,,,,,,,,,,,,,,,,,,,,,,,,,,,,,,,,,,,,,,,,,,,,,728692,2022_May_11_1839,palt,2021.1.2,52.70393157180613,
7,csavarhúzó,hering,,,,,,,,,3,0,3,0,0,5,5,6,,,,,,,,,,,,,950.3538396181539,None,951.3649587046821,None,951.3649587046821,None,,,,,,,,,,,,,,,,,,,,,,,,,,,,,,,,,,,,,,,,,,,,,,,,,,,,,,,,,,,728692,2022_May_11_1839,palt,2021.1.2,52.70393157180613,
3,fogó,limonádé,,,,,,,,,3,0,3,0,0,6,6,2,,,,,,,,,,,,,957.3562710629776,None,958.3748197720852,None,958.3748197720852,None,,,,,,,,,,,,,,,,,,,,,,,,,,,,,,,,,,,,,,,,,,,,,,,,,,,,,,,,,,,728692,2022_May_11_1839,palt,2021.1.2,52.70393157180613,
4,mocsár,ananász,,,,,,,,,3,0,3,0,0,7,7,3,,,,,,,,,,,,,964.3539298097603,None,965.3633486265317,None,965.3633486265317,None,,,,,,,,,,,,,,,,,,,,,,,,,,,,,,,,,,,,,,,,,,,,,,,,,,,,,,,,,,,728692,2022_May_11_1839,palt,2021.1.2,52.70393157180613,
6,menta,triatlon,,,,,,,,,3,0,3,0,0,8,8,5,,,,,,,,,,,,,971.3542495239526,None,972.3659533020109,None,972.3659533020109,None,,,,,,,,,,,,,,,,,,,,,,,,,,,,,,,,,,,,,,,,,,,,,,,,,,,,,,,,,,,728692,2022_May_11_1839,palt,2021.1.2,52.70393157180613,
10,málna,dominó,,,,,,,,,3,0,3,0,0,9,9,9,,,,,,,,,,,,,978.351183315739,None,979.3612558671739,None,979.3612558671739,None,,,,,,,,,,,,,,,,,,,,,,,,,,,,,,,,,,,,,,,,,,,,,,,,,,,,,,,,,,,728692,2022_May_11_1839,palt,2021.1.2,52.70393157180613,
6,menta,triatlon,,,,,,,,,3,0,3,0,,,,,0,0,0,5,,,,,,,,,993.0049350433983,None,,,,,,,,,,,menta,994.0053729398642,None,4,1.5346781024709344,994.0053729398642,None,994.0053729398642,None,994.0053729398642,None, triatlon,995.5772570017725,None,995.5772570017725,None,down,3.5366803591605276,995.5772570017725,None,999.1625068578869,None,4,0.7134651916567236,999.1625068578869,None,,,,,,,988.9841744594742,None,985.3558061090298,None,u,1.4222855085972697,985.3558061090298,None,986.8142507306766,None,4,2.131202548276633,986.8142507306766,None,,,,,,,728692,2022_May_11_1839,palt,2021.1.2,52.70393157180613,
5,karton,hentes,,,,,,,,,3,0,3,0,,,,,0,1,1,4,,,,,,,,,999.9065797054209,None,,,,,,,,,,,karton,1000.940954266116,None,4,1.2969217870850116,1000.940954266116,None,1000.940954266116,None,1000.940954266116,None, hentes,1002.2916465031449,None,1002.2916465031449,None,down,2.534169296734035,1002.2916465031449,None,1004.8660957426764,None,4,0.5896879117935896,1004.8660957426764,None,,,,,,,,,,,,,,,,,,,,,,,,,,,728692,2022_May_11_1839,palt,2021.1.2,52.70393157180613,
8,szalvéta,puska,,,,,,,,,3,0,3,0,,,,,0,2,2,7,,,,,,,,,1005.4902882156894,None,,,,,,,,,,,puska,1006.5041786767542,None,4,2.607015611138195,1006.5041786767542,None,1006.5041786767542,None,1006.5041786767542,None, szilva,1009.1500069044996,None,1009.1500069044996,None,down,3.419854685664177,1009.1500069044996,None,1012.6065590544604,None,4,1.77616369118914,1012.6065590544604,None,,,,,,,,,,,,,,,,,,,,,,,,,,,728692,2022_May_11_1839,palt,2021.1.2,52.70393157180613,
10,málna,dominó,,,,,,,,,3,0,3,0,,,,,0,3,3,9,,,,,,,,,1014.40934641473,None,,,,,,,,,,,málna,1015.4377359759528,None,4,2.869076424278319,1015.4377359759528,None,1015.4377359759528,None,1015.4377359759528,None, dominó,1018.3528580830898,None,1018.3528580830898,None,down,2.776747760595754,1018.3528580830898,None,1021.1774569165427,None,4,0.9322227721568197,1021.1774569165427,None,,,,,,,,,,,,,,,,,,,,,,,,,,,728692,2022_May_11_1839,palt,2021.1.2,52.70393157180613,
1,bagoly,kirakó,,,,,,,,,3,0,3,0,,,,,0,4,4,0,,,,,,,,,1022.1463973687496,None,,,,,,,,,,,bagoly,1023.1619010181166,None,4,1.3667469890788198,1023.1619010181166,None,1023.1619010181166,None,1023.1619010181166,None, kirakó,1024.5762474762741,None,1024.5762474762741,None,down,3.065492577617988,1024.5762474762741,None,1027.6707071531564,None,4,0.4251607588957995,1027.6707071531564,None,,,,,,,,,,,,,,,,,,,,,,,,,,,728692,2022_May_11_1839,palt,2021.1.2,52.70393157180613,
2,kötény,tisztás,,,,,,,,,3,0,3,0,,,,,0,5,5,1,,,,,,,,,1028.1235185230616,None,,,,,,,,,,,tisztás,1029.1528448341414,None,4,2.726656200364232,1029.1528448341414,None,1029.1528448341414,None,1029.1528448341414,None, kötény,1031.9287155577913,None,1031.9287155577913,None,down,4.480675641912967,1031.9287155577913,None,1036.4494067872874,None,4,0.9269692588131875,1036.4494067872874,None,,,,,,,,,,,,,,,,,,,,,,,,,,,728692,2022_May_11_1839,palt,2021.1.2,52.70393157180613,
9,szilva,kecske,,,,,,,,,3,0,3,0,,,,,0,6,6,8,,,,,,,,,1037.4103938830085,None,,,,,,,,,,,szilva,1038.4299533616286,None,4,3.7697454602457583,1038.4299533616286,None,1038.4299533616286,None,1038.4299533616286,None, kecske,1042.2348095339257,None,1042.2348095339257,None,down,2.718548273667693,1042.2348095339257,None,1044.983480294235,None,4,0.5578962557483464,1044.983480294235,None,,,,,,,,,,,,,,,,,,,,,,,,,,,728692,2022_May_11_1839,palt,2021.1.2,52.70393157180613,
7,csavarhúzó,hering,,,,,,,,,3,0,3,0,,,,,0,7,7,6,,,,,,,,,1045.5743388324045,None,,,,,,,,,,,hering,1046.5924602192827,None,4,1.4311302080750465,1046.5924602192827,None,1046.5924602192827,None,1046.5924602192827,None, csavarhúzó,1048.0632934542373,None,1048.0632934542373,None,down,3.626087743556127,1048.0632934542373,None,1051.7302402334753,None,4,0.5780513109639287,1051.7302402334753,None,,,,,,,,,,,,,,,,,,,,,,,,,,,728692,2022_May_11_1839,palt,2021.1.2,52.70393157180613,
3,fogó,limonádé,,,,,,,,,3,0,3,0,,,,,0,8,8,2,,,,,,,,,1052.3395492031705,None,,,,,,,,,,,fogó,1053.3567484572995,None,4,2.77755482099019,1053.3567484572995,None,1053.3567484572995,None,1053.3567484572995,None, limonádé,1056.1671993164346,None,1056.1671993164346,None,down,3.810201743384823,1056.1671993164346,None,1060.0009939752053,None,4,1.0522956599015743,1060.0009939752053,None,,,,,,,,,,,,,,,,,,,,,,,,,,,728692,2022_May_11_1839,palt,2021.1.2,52.70393157180613,
4,mocsár,ananász,,,,,,,,,3,0,3,0,,,,,0,9,9,3,,,,,,,,,1061.0797263893764,None,,,,,,,,,,,mocsár,1062.0970942087006,None,4,0.8313625920563936,1062.0970942087006,None,1062.0970942087006,None,1062.0970942087006,None, ananász,1062.9677729359828,None,1062.9677729359828,None,down,2.769234166480601,1062.9677729359828,None,1065.778353795642,None,4,0.7167512809392065,1065.778353795642,None,,,,,,,,,,,,,,,,,,,,,,,,,,,728692,2022_May_11_1839,palt,2021.1.2,52.70393157180613,
,,,,,,,,,,,3,0,3,0,,,,,,,,,,,,,,,,,,,,,,,,,,,,,,,,,,,,,,,,,,,,,,,,,,,,,,,,,,,,,,,,,,,,,,,,,,,4,8.880241228733212,1066.5436966547277,None,1066.5436966547277,None,728692,2022_May_11_1839,palt,2021.1.2,52.70393157180613,
