itemno,wordA,wordB,enc_gyak.thisRepN,enc_gyak.thisTrialN,enc_gyak.thisN,enc_gyak.thisIndex,rec_gyak.thisRepN,rec_gyak.thisTrialN,rec_gyak.thisN,rec_gyak.thisIndex,repeat_task.thisRepN,repeat_task.thisTrialN,repeat_task.thisN,repeat_task.thisIndex,enc_loop.thisRepN,enc_loop.thisTrialN,enc_loop.thisN,enc_loop.thisIndex,test_loop.thisRepN,test_loop.thisTrialN,test_loop.thisN,test_loop.thisIndex,int.started,int.stopped,int_key.keys,int_key.rt,int_key.started,int_key.stopped,prepare_gyak_text.started,prepare_gyak_text.stopped,fix.started,fix.stopped,word1.started,word1.stopped,word2.started,word2.stopped,gykrec_inst.started,gykrec_inst.stopped,gyakrec_inst.keys,gyakrec_inst.rt,gyakrec_inst.started,gyakrec_inst.stopped,cueword,cueword1.started,cueword1.stopped,cue_resp.keys,cue_resp.rt,cue_resp.started,cue_resp.stopped,cue_cont_text.started,cue_cont_text.stopped,cue_space.started,cue_space.stopped,test_ansbox.text,test_ansbox.started,test_ansbox.stopped,ans_text.started,ans_text.stopped,ans_continue.keys,ans_continue.rt,ans_continue.started,ans_continue.stopped,feedback_text.started,feedback_text.stopped,feedback_cont.keys,feedback_cont.rt,feedback_cont.started,feedback_cont.stopped,main_prep.started,main_prep.stopped,main_prep_resp.keys,main_prep_resp.rt,main_prep_resp.started,main_prep_resp.stopped,preparation.started,preparation.stopped,break_text.started,break_text.stopped,key_resp.keys,key_resp.rt,key_resp.started,key_resp.stopped,test_instruction.started,test_instruction.stopped,test_i_key.keys,test_i_key.rt,test_i_key.started,test_i_key.stopped,rep_routine.keys,rep_routine.rt,rep_routine.started,rep_routine.stopped,encrep_textbox.started,encrep_textbox.stopped,Résztvevő kódja,date,expName,psychopyVersion,frameRate,
,,,,,,,,,,,,,,,,,,,,,,,45.97070074628573,None,4,101.05931848636828,45.97070074628573,None,,,,,,,,,,,,,,,,,,,,,,,,,,,,,,,,,,,,,,,,,,,,,,,,,,,,,,,,,,,,,,,,,,,871070,2022_May_06_1126,palt,2021.1.2,59.96378344192403,
2,lepke,szintetizátor,0,0,0,1,,,,,,,,,,,,,,,,,,,,,,,147.05212678341195,None,150.14290321618319,None,151.0801316301804,None,151.0801316301804,None,,,,,,,,,,,,,,,,,,,,,,,,,,,,,,,,,,,,,,,,,,,,,,,,,,,,,,,,,,,871070,2022_May_06_1126,palt,2021.1.2,59.96378344192403,
1,sapka,beton,0,1,1,0,,,,,,,,,,,,,,,,,,,,,,,,,157.06611179048195,None,158.08138405135833,None,158.08138405135833,None,,,,,,,,,,,,,,,,,,,,,,,,,,,,,,,,,,,,,,,,,,,,,,,,,,,,,,,,,,,871070,2022_May_06_1126,palt,2021.1.2,59.96378344192403,
4,kard,harcsa,0,2,2,3,,,,,,,,,,,,,,,,,,,,,,,,,164.06368283357006,None,165.07267930428497,None,165.07267930428497,None,,,,,,,,,,,,,,,,,,,,,,,,,,,,,,,,,,,,,,,,,,,,,,,,,,,,,,,,,,,871070,2022_May_06_1126,palt,2021.1.2,59.96378344192403,
3,majoránna,szikla,0,3,3,2,,,,,,,,,,,,,,,,,,,,,,,,,171.0642407783307,None,172.07587520196103,None,172.07587520196103,None,,,,,,,,,,,,,,,,,,,,,,,,,,,,,,,,,,,,,,,,,,,,,,,,,,,,,,,,,,,871070,2022_May_06_1126,palt,2021.1.2,59.96378344192403,
,,,,,,,,,,,,,,,,,,,,,,,,,,,,,,,,,,,,,178.0666771993274,None,4,7.816768946126103,178.0666771993274,None,,,,,,,,,,,,,,,,,,,,,,,,,,,,,,,,,,,,,,,,,,,,,,,,,,,,,871070,2022_May_06_1126,palt,2021.1.2,59.96378344192403,
4,kard,harcsa,,,,,0,0,0,3,,,,,,,,,,,,,,,,,,,,,185.93139176431578,None,,,,,,,,,,,kard,186.95038738904987,None,4,4.026136944652535,186.95038738904987,None,186.95038738904987,None,186.95038738904987,None,harcsa,191.11626461881679,None,191.11626461881679,None,down,2.6860761367715895,191.11626461881679,None,193.85572493635118,None,4,1.8085562105989084,193.85572493635118,None,,,,,,,,,,,,,,,,,,,,,,,,,,,871070,2022_May_06_1126,palt,2021.1.2,59.96378344192403,
3,majoránna,szikla,,,,,0,1,1,2,,,,,,,,,,,,,,,,,,,,,195.69173520198092,None,,,,,,,,,,,majoránna,196.71966385224368,None,4,12.155702668358572,196.71966385224368,None,196.71966385224368,None,196.71966385224368,None, ,208.91563246806618,None,208.91563246806618,None,down,2.038314384757541,208.91563246806618,None,211.0052217907505,None,4,4.7110334356548265,211.0052217907505,None,,,,,,,,,,,,,,,,,,,,,,,,,,,871070,2022_May_06_1126,palt,2021.1.2,59.96378344192403,
2,lepke,szintetizátor,,,,,0,2,2,1,,,,,,,,,,,,,,,,,,,,,215.7493481313577,None,,,,,,,,,,,szintetizátor,216.7669149945723,None,4,2.666915056761354,216.7669149945723,None,216.7669149945723,None,216.7669149945723,None, lepke,219.48683853680268,None,219.48683853680268,None,down,12.379250674624927,219.48683853680268,None,231.91024553298485,None,4,1.8414730861550197,231.91024553298485,None,,,,,,,,,,,,,,,,,,,,,,,,,,,871070,2022_May_06_1126,palt,2021.1.2,59.96378344192403,
1,sapka,beton,,,,,0,3,3,0,,,,,,,,,,,,,,,,,,,,,233.793477395433,None,,,,,,,,,,,sapka,234.81297809397802,None,4,1.6479769682046026,234.81297809397802,None,234.81297809397802,None,234.81297809397802,None, beton,236.49797535093967,None,236.49797535093967,None,down,2.647861273959279,236.49797535093967,None,239.17233806848526,None,4,1.2733391346409917,239.17233806848526,None,,,,,,,,,,,,,,,,,,,,,,,,,,,871070,2022_May_06_1126,palt,2021.1.2,59.96378344192403,
,,,,,,,,,,,,,,,,,,,,,,,,,,,,,,,,,,,,,,,,,,,,,,,,,,,,,,,,,,,,,,,,,,,,,240.4754134202376,None,4,9.826167236664332,240.4754134202376,None,,,,,,,,,,,,,,,,,,,,,871070,2022_May_06_1126,palt,2021.1.2,59.96378344192403,
10,málna,dominó,,,,,,,,,0,0,0,0,0,0,0,9,,,,,,,,,,,,,254.3806181679247,None,255.33763154002372,None,255.33763154002372,None,,,,,,,,,,,,,,,,,,,,,,,,,,,,,,,,,,,,,,,250.32992574421223,None,,,,,,,,,,,,,,,,,,,871070,2022_May_06_1126,palt,2021.1.2,59.96378344192403,
9,szilva,kecske,,,,,,,,,0,0,0,0,0,1,1,8,,,,,,,,,,,,,261.33357073459774,None,262.3459923143964,None,262.3459923143964,None,,,,,,,,,,,,,,,,,,,,,,,,,,,,,,,,,,,,,,,,,,,,,,,,,,,,,,,,,,,871070,2022_May_06_1126,palt,2021.1.2,59.96378344192403,
2,kötény,tisztás,,,,,,,,,0,0,0,0,0,2,2,1,,,,,,,,,,,,,268.3314534056699,None,269.34193928411696,None,269.34193928411696,None,,,,,,,,,,,,,,,,,,,,,,,,,,,,,,,,,,,,,,,,,,,,,,,,,,,,,,,,,,,871070,2022_May_06_1126,palt,2021.1.2,59.96378344192403,
6,menta,triatlon,,,,,,,,,0,0,0,0,0,3,3,5,,,,,,,,,,,,,275.329100956209,None,276.337881277781,None,276.337881277781,None,,,,,,,,,,,,,,,,,,,,,,,,,,,,,,,,,,,,,,,,,,,,,,,,,,,,,,,,,,,871070,2022_May_06_1126,palt,2021.1.2,59.96378344192403,
8,szalvéta,puska,,,,,,,,,0,0,0,0,0,4,4,7,,,,,,,,,,,,,282.3319973552134,None,283.34941493545193,None,283.34941493545193,None,,,,,,,,,,,,,,,,,,,,,,,,,,,,,,,,,,,,,,,,,,,,,,,,,,,,,,,,,,,871070,2022_May_06_1126,palt,2021.1.2,59.96378344192403,
3,fogó,limonádé,,,,,,,,,0,0,0,0,0,5,5,2,,,,,,,,,,,,,289.3303847890347,None,290.3486299563665,None,290.3486299563665,None,,,,,,,,,,,,,,,,,,,,,,,,,,,,,,,,,,,,,,,,,,,,,,,,,,,,,,,,,,,871070,2022_May_06_1126,palt,2021.1.2,59.96378344192403,
5,karton,hentes,,,,,,,,,0,0,0,0,0,6,6,4,,,,,,,,,,,,,296.3331359481672,None,297.337414457812,None,297.337414457812,None,,,,,,,,,,,,,,,,,,,,,,,,,,,,,,,,,,,,,,,,,,,,,,,,,,,,,,,,,,,871070,2022_May_06_1126,palt,2021.1.2,59.96378344192403,
7,csavarhúzó,hering,,,,,,,,,0,0,0,0,0,7,7,6,,,,,,,,,,,,,303.3309256285429,None,304.3418462933041,None,304.3418462933041,None,,,,,,,,,,,,,,,,,,,,,,,,,,,,,,,,,,,,,,,,,,,,,,,,,,,,,,,,,,,871070,2022_May_06_1126,palt,2021.1.2,59.96378344192403,
1,bagoly,kirakó,,,,,,,,,0,0,0,0,0,8,8,0,,,,,,,,,,,,,310.33223060972523,None,311.3494472800521,None,311.3494472800521,None,,,,,,,,,,,,,,,,,,,,,,,,,,,,,,,,,,,,,,,,,,,,,,,,,,,,,,,,,,,871070,2022_May_06_1126,palt,2021.1.2,59.96378344192403,
4,mocsár,ananász,,,,,,,,,0,0,0,0,0,9,9,3,,,,,,,,,,,,,317.3323400837835,None,318.35122467938345,None,318.35122467938345,None,,,,,,,,,,,,,,,,,,,,,,,,,,,,,,,,,,,,,,,,,,,,,,,,,,,,,,,,,,,871070,2022_May_06_1126,palt,2021.1.2,59.96378344192403,
7,csavarhúzó,hering,,,,,,,,,0,0,0,0,,,,,0,0,0,6,,,,,,,,,335.23613099823706,None,,,,,,,,,,,hering,336.2280647464795,None,4,9.90113088011276,336.2280647464795,None,336.2280647464795,None,336.2280647464795,None,,346.15778236545157,None,346.15778236545157,None,down,2.522619155817665,346.15778236545157,None,348.7147813689662,None,4,2.569360248162411,348.7147813689662,None,,,,,,,331.2132617936004,None,324.3286207630299,None,u,2.9439909285865724,324.3286207630299,None,327.3338301135227,None,4,3.8517132699489594,327.3338301135227,None,,,,,,,871070,2022_May_06_1126,palt,2021.1.2,59.96378344192403,
6,menta,triatlon,,,,,,,,,0,0,0,0,,,,,0,1,1,5,,,,,,,,,351.32982404518407,None,,,,,,,,,,,triatlon,352.36271199723706,None,4,8.708340745652094,352.36271199723706,None,352.36271199723706,None,352.36271199723706,None, menta,361.1063121156767,None,361.1063121156767,None,down,2.3097290142904967,361.1063121156767,None,363.46441033878364,None,4,1.4705667027737945,363.46441033878364,None,,,,,,,,,,,,,,,,,,,,,,,,,,,871070,2022_May_06_1126,palt,2021.1.2,59.96378344192403,
2,kötény,tisztás,,,,,,,,,0,0,0,0,,,,,0,2,2,1,,,,,,,,,364.9769855556078,None,,,,,,,,,,,tisztás,365.9901115640532,None,4,1.7838921904331073,365.9901115640532,None,365.9901115640532,None,365.9901115640532,None, kötény,367.8065834995359,None,367.8065834995359,None,down,3.065244394703768,367.8065834995359,None,370.9080470314948,None,4,1.1839062478393316,370.9080470314948,None,,,,,,,,,,,,,,,,,,,,,,,,,,,871070,2022_May_06_1126,palt,2021.1.2,59.96378344192403,
10,málna,dominó,,,,,,,,,0,0,0,0,,,,,0,3,3,9,,,,,,,,,372.1282159575494,None,,,,,,,,,,,málna,373.1638339202618,None,4,2.155047378735617,373.1638339202618,None,373.1638339202618,None,373.1638339202618,None, dominó,375.362019386841,None,375.362019386841,None,down,2.4379337755963206,375.362019386841,None,377.83803646976594,None,4,0.91785709396936,377.83803646976594,None,,,,,,,,,,,,,,,,,,,,,,,,,,,871070,2022_May_06_1126,palt,2021.1.2,59.96378344192403,
5,karton,hentes,,,,,,,,,0,0,0,0,,,,,0,4,4,4,,,,,,,,,378.7820336185396,None,,,,,,,,,,,hentes,379.8015582644148,None,4,1.9924083434743807,379.8015582644148,None,379.8015582644148,None,379.8015582644148,None, karton,381.81729827832896,None,381.81729827832896,None,down,2.5424849753035232,381.81729827832896,None,384.3874018309871,None,4,1.074354071635753,384.3874018309871,None,,,,,,,,,,,,,,,,,,,,,,,,,,,871070,2022_May_06_1126,palt,2021.1.2,59.96378344192403,
9,szilva,kecske,,,,,,,,,0,0,0,0,,,,,0,5,5,8,,,,,,,,,385.484493551543,None,,,,,,,,,,,szilva,386.50470458786003,None,4,1.636921948636882,386.50470458786003,None,386.50470458786003,None,386.50470458786003,None, kecske,388.18760566425044,None,388.18760566425044,None,down,2.4759866043459624,388.18760566425044,None,390.6988404451404,None,4,1.006737634073943,390.6988404451404,None,,,,,,,,,,,,,,,,,,,,,,,,,,,871070,2022_May_06_1126,palt,2021.1.2,59.96378344192403,
1,bagoly,kirakó,,,,,,,,,0,0,0,0,,,,,0,6,6,0,,,,,,,,,391.732438734849,None,,,,,,,,,,,bagoly,392.74972071661614,None,4,13.543747037649155,392.74972071661614,None,392.74972071661614,None,392.74972071661614,None, ,406.3232232538285,None,406.3232232538285,None,down,2.3402256411500275,406.3232232538285,None,408.72649354406167,None,4,1.099949243827723,408.72649354406167,None,,,,,,,,,,,,,,,,,,,,,,,,,,,871070,2022_May_06_1126,palt,2021.1.2,59.96378344192403,
8,szalvéta,puska,,,,,,,,,0,0,0,0,,,,,0,7,7,7,,,,,,,,,409.86002708238084,None,,,,,,,,,,,puska,410.8735203889664,None,4,2.216809750185348,410.8735203889664,None,410.8735203889664,None,410.8735203889664,None, szalvéta,413.11730462289415,None,413.11730462289415,None,down,3.1459569841390476,413.11730462289415,None,416.3090706145158,None,4,1.1352596215438098,416.3090706145158,None,,,,,,,,,,,,,,,,,,,,,,,,,,,871070,2022_May_06_1126,palt,2021.1.2,59.96378344192403,
4,mocsár,ananász,,,,,,,,,0,0,0,0,,,,,0,8,8,3,,,,,,,,,417.4747746139765,None,,,,,,,,,,,mocsár,418.4927162392996,None,4,13.74142525345087,418.4927162392996,None,418.4927162392996,None,418.4927162392996,None, ,432.27050804696046,None,432.27050804696046,None,down,2.0729927982902154,432.27050804696046,None,434.38969612226356,None,4,1.275409501628019,434.38969612226356,None,,,,,,,,,,,,,,,,,,,,,,,,,,,871070,2022_May_06_1126,palt,2021.1.2,59.96378344192403,
3,fogó,limonádé,,,,,,,,,0,0,0,0,,,,,0,9,9,2,,,,,,,,,435.69912159466185,None,,,,,,,,,,,fogó,436.7146019184729,None,4,3.287819263176061,436.7146019184729,None,436.7146019184729,None,436.7146019184729,None, limonádé,440.0396131458692,None,440.0396131458692,None,down,3.8072757988702506,440.0396131458692,None,443.90453328564763,None,4,1.057458359398879,443.90453328564763,None,,,,,,,,,,,,,,,,,,,,,,,,,,,871070,2022_May_06_1126,palt,2021.1.2,59.96378344192403,
,,,,,,,,,,,0,0,0,0,,,,,,,,,,,,,,,,,,,,,,,,,,,,,,,,,,,,,,,,,,,,,,,,,,,,,,,,,,,,,,,,,,,,,,,,,,,4,53.19381521025207,445.0124865800608,None,445.0124865800608,None,871070,2022_May_06_1126,palt,2021.1.2,59.96378344192403,
5,karton,hentes,,,,,,,,,1,0,1,0,0,0,0,4,,,,,,,,,,,,,502.26748537959065,None,503.30926592624746,None,503.30926592624746,None,,,,,,,,,,,,,,,,,,,,,,,,,,,,,,,,,,,,,,,498.2398926158203,None,,,,,,,,,,,,,,,,,,,871070,2022_May_06_1126,palt,2021.1.2,59.96378344192403,
7,csavarhúzó,hering,,,,,,,,,1,0,1,0,0,1,1,6,,,,,,,,,,,,,509.24633168417495,None,510.2597512822831,None,510.2597512822831,None,,,,,,,,,,,,,,,,,,,,,,,,,,,,,,,,,,,,,,,,,,,,,,,,,,,,,,,,,,,871070,2022_May_06_1126,palt,2021.1.2,59.96378344192403,
2,kötény,tisztás,,,,,,,,,1,0,1,0,0,2,2,1,,,,,,,,,,,,,516.246377713047,None,517.2692232811823,None,517.2692232811823,None,,,,,,,,,,,,,,,,,,,,,,,,,,,,,,,,,,,,,,,,,,,,,,,,,,,,,,,,,,,871070,2022_May_06_1126,palt,2021.1.2,59.96378344192403,
4,mocsár,ananász,,,,,,,,,1,0,1,0,0,3,3,3,,,,,,,,,,,,,523.245308163343,None,524.2578529015882,None,524.2578529015882,None,,,,,,,,,,,,,,,,,,,,,,,,,,,,,,,,,,,,,,,,,,,,,,,,,,,,,,,,,,,871070,2022_May_06_1126,palt,2021.1.2,59.96378344192403,
3,fogó,limonádé,,,,,,,,,1,0,1,0,0,4,4,2,,,,,,,,,,,,,530.2462187890196,None,531.2583598414203,None,531.2583598414203,None,,,,,,,,,,,,,,,,,,,,,,,,,,,,,,,,,,,,,,,,,,,,,,,,,,,,,,,,,,,871070,2022_May_06_1126,palt,2021.1.2,59.96378344192403,
6,menta,triatlon,,,,,,,,,1,0,1,0,0,5,5,5,,,,,,,,,,,,,537.2454369198531,None,538.2580783809535,None,538.2580783809535,None,,,,,,,,,,,,,,,,,,,,,,,,,,,,,,,,,,,,,,,,,,,,,,,,,,,,,,,,,,,871070,2022_May_06_1126,palt,2021.1.2,59.96378344192403,
1,bagoly,kirakó,,,,,,,,,1,0,1,0,0,6,6,0,,,,,,,,,,,,,544.2429134171689,None,545.2536919522099,None,545.2536919522099,None,,,,,,,,,,,,,,,,,,,,,,,,,,,,,,,,,,,,,,,,,,,,,,,,,,,,,,,,,,,871070,2022_May_06_1126,palt,2021.1.2,59.96378344192403,
9,szilva,kecske,,,,,,,,,1,0,1,0,0,7,7,8,,,,,,,,,,,,,551.2552560014883,None,552.269089237554,None,552.269089237554,None,,,,,,,,,,,,,,,,,,,,,,,,,,,,,,,,,,,,,,,,,,,,,,,,,,,,,,,,,,,871070,2022_May_06_1126,palt,2021.1.2,59.96378344192403,
8,szalvéta,puska,,,,,,,,,1,0,1,0,0,8,8,7,,,,,,,,,,,,,558.244179833564,None,559.2611713357037,None,559.2611713357037,None,,,,,,,,,,,,,,,,,,,,,,,,,,,,,,,,,,,,,,,,,,,,,,,,,,,,,,,,,,,871070,2022_May_06_1126,palt,2021.1.2,59.96378344192403,
10,málna,dominó,,,,,,,,,1,0,1,0,0,9,9,9,,,,,,,,,,,,,565.2440625843592,None,566.2512611292768,None,566.2512611292768,None,,,,,,,,,,,,,,,,,,,,,,,,,,,,,,,,,,,,,,,,,,,,,,,,,,,,,,,,,,,871070,2022_May_06_1126,palt,2021.1.2,59.96378344192403,
2,kötény,tisztás,,,,,,,,,1,0,1,0,,,,,0,0,0,1,,,,,,,,,579.9805160957621,None,,,,,,,,,,,tisztás,580.9898329026764,None,4,1.1824355004355311,580.9898329026764,None,580.9898329026764,None,580.9898329026764,None, kötény,582.2033988601761,None,582.2033988601761,None,down,3.4338061038870364,582.2033988601761,None,585.6686286998447,None,4,2.739454097347334,585.6686286998447,None,,,,,,,575.9589540495072,None,572.2557635632111,None,u,1.5095621906220913,572.2557635632111,None,573.7970129117602,None,4,2.1210696616908535,573.7970129117602,None,,,,,,,871070,2022_May_06_1126,palt,2021.1.2,59.96378344192403,
1,bagoly,kirakó,,,,,,,,,1,0,1,0,,,,,0,1,1,0,,,,,,,,,588.4367964266567,None,,,,,,,,,,,bagoly,589.4437903297367,None,4,1.8591453803237528,589.4437903297367,None,589.4437903297367,None,589.4437903297367,None, kirakó,591.3580665005138,None,591.3580665005138,None,down,2.822910692775622,591.3580665005138,None,594.2099113259465,None,4,1.0229758796049282,594.2099113259465,None,,,,,,,,,,,,,,,,,,,,,,,,,,,871070,2022_May_06_1126,palt,2021.1.2,59.96378344192403,
5,karton,hentes,,,,,,,,,1,0,1,0,,,,,0,2,2,4,,,,,,,,,595.2723992745159,None,,,,,,,,,,,hentes,596.2899117115885,None,4,2.5801051947055385,596.2899117115885,None,596.2899117115885,None,596.2899117115885,None, karton,598.9002180773532,None,598.9002180773532,None,down,2.416649146587588,598.9002180773532,None,601.3423687834293,None,4,0.9777680467814207,601.3423687834293,None,,,,,,,,,,,,,,,,,,,,,,,,,,,871070,2022_May_06_1126,palt,2021.1.2,59.96378344192403,
9,szilva,kecske,,,,,,,,,1,0,1,0,,,,,0,3,3,8,,,,,,,,,602.3539089722326,None,,,,,,,,,,,szilva,603.3656528700376,None,4,1.2734728672076017,603.3656528700376,None,603.3656528700376,None,603.3656528700376,None, kecske,604.6780963446945,None,604.6780963446945,None,down,2.6547155352309346,604.6780963446945,None,607.3581414530054,None,4,1.0749421840300784,607.3581414530054,None,,,,,,,,,,,,,,,,,,,,,,,,,,,871070,2022_May_06_1126,palt,2021.1.2,59.96378344192403,
8,szalvéta,puska,,,,,,,,,1,0,1,0,,,,,0,4,4,7,,,,,,,,,608.4633989472641,None,,,,,,,,,,,puska,609.4917101348983,None,4,1.2261803611181676,609.4917101348983,None,609.4917101348983,None,609.4917101348983,None, szalvéta,610.7446612708736,None,610.7446612708736,None,down,3.2440871538128704,610.7446612708736,None,614.0218279564288,None,4,0.8829211674164981,614.0218279564288,None,,,,,,,,,,,,,,,,,,,,,,,,,,,871070,2022_May_06_1126,palt,2021.1.2,59.96378344192403,
4,mocsár,ananász,,,,,,,,,1,0,1,0,,,,,0,5,5,3,,,,,,,,,614.9329225358088,None,,,,,,,,,,,mocsár,615.9597813254222,None,4,1.6128538160119206,615.9597813254222,None,615.9597813254222,None,615.9597813254222,None, ananász,617.6148790870793,None,617.6148790870793,None,down,2.98184875654988,617.6148790870793,None,620.6348282562103,None,4,1.1878140383632854,620.6348282562103,None,,,,,,,,,,,,,,,,,,,,,,,,,,,871070,2022_May_06_1126,palt,2021.1.2,59.96378344192403,
3,fogó,limonádé,,,,,,,,,1,0,1,0,,,,,0,6,6,2,,,,,,,,,621.8478110774886,None,,,,,,,,,,,fogó,622.8702918356284,None,4,3.3602730880957097,622.8702918356284,None,622.8702918356284,None,622.8702918356284,None, limonádé,626.2597671435215,None,626.2597671435215,None,down,4.560702463029884,626.2597671435215,None,630.8640499450266,None,4,1.0894164034398273,630.8640499450266,None,,,,,,,,,,,,,,,,,,,,,,,,,,,871070,2022_May_06_1126,palt,2021.1.2,59.96378344192403,
7,csavarhúzó,hering,,,,,,,,,1,0,1,0,,,,,0,7,7,6,,,,,,,,,631.9755269374,None,,,,,,,,,,,hering,632.9891667277552,None,4,2.390279569546692,632.9891667277552,None,632.9891667277552,None,632.9891667277552,None, csavarhúzó,635.4038360102568,None,635.4038360102568,None,down,4.184849218116142,635.4038360102568,None,639.6228128502844,None,4,1.353505908511579,639.6228128502844,None,,,,,,,,,,,,,,,,,,,,,,,,,,,871070,2022_May_06_1126,palt,2021.1.2,59.96378344192403,
6,menta,triatlon,,,,,,,,,1,0,1,0,,,,,0,8,8,5,,,,,,,,,641.0011168225901,None,,,,,,,,,,,triatlon,642.0297104036435,None,4,1.4309196572285146,642.0297104036435,None,642.0297104036435,None,642.0297104036435,None, menta,643.4992800210603,None,643.4992800210603,None,down,2.601034032762982,643.4992800210603,None,646.1246760871727,None,4,1.1796019247267395,646.1246760871727,None,,,,,,,,,,,,,,,,,,,,,,,,,,,871070,2022_May_06_1126,palt,2021.1.2,59.96378344192403,
10,málna,dominó,,,,,,,,,1,0,1,0,,,,,0,9,9,9,,,,,,,,,647.3288568165153,None,,,,,,,,,,,málna,648.3521122905659,None,4,1.4650674945442006,648.3521122905659,None,648.3521122905659,None,648.3521122905659,None, dominó,649.8439689093502,None,649.8439689093502,None,down,2.688220212236047,649.8439689093502,None,652.5708866656059,None,4,0.9643375634914264,652.5708866656059,None,,,,,,,,,,,,,,,,,,,,,,,,,,,871070,2022_May_06_1126,palt,2021.1.2,59.96378344192403,
