"trial_type","trial_index","time_elapsed","internal_node_id","rt","responses","success","stimulus","key_press","cond","enc_response","condition","correct_response","correct","rec_response","targ_old","targ_sim","targ_new","lure_old","lure_sim","lure_new","foil_old","foil_sim","foil_new","recognition_ratio","ldi"
"pavlovia","0","9","0.0-0.0","","","","","","","","","","","","","","","","","","","","","",""
"survey-multi-choice","1","25951","0.0-1.0","25937.5","{""Q0"":""Igen"",""Q1"":""Igen""}","","","","","","","","","","","","","","","","","","","",""
"survey-text","2","33068","0.0-2.0-0.0","7110.89999961853","{""Q0"":""434439""}","","","","","","","","","","","","","","","","","","","",""
"fullscreen","3","36009","0.0-2.0-1.0","","","true","","","","","","","","","","","","","","","","","","",""
"html-keyboard-response","4","46023","0.0-2.0-2.0","10012","","","<p>Üdvözöljük! Ez a feladat két részből áll, és összesen 10-15 percet vesz igénybe.</p>","32","","","","","","","","","","","","","","","","",""
"html-keyboard-response","5","74198","0.0-2.0-3.0-0.0","28173.199999809265","","","<p>Az első részben tárgyakat lát majd a képernyőn, egymás után fognak megjelenni.<br>Az Ön feladata eldönteni, hogy a tárgyak <i>beltéri vagy kültéri</i> tárgyak-e.</p>						   <p>Amennyiben a tárgyat általában beltéren látja, nyomja le a <b>C</b> billentyűt. Amennyiben a tárgyat általában kültéren látja, nyomja le az <b>M</b> billentyűt.</p>						   <p>Ebben a feladatban nincsen mindig egyértelműen jó megoldás. Válaszoljon legjobb tudása szerint. A válaszadásra 2 másodperce lesz.","32","","","","","","","","","","","","","","","","",""
"html-keyboard-response","6","76200","0.0-2.0-3.0-1.0","null","","","<p>Kezdődik a gyakorlás...</p>","null","","","","","","","","","","","","","","","","",""
"image-keyboard-response","7","78203","0.0-2.0-4.0-0.0","1483.1999998092651","","","stimuli/Set_2_rs/165b.jpg","67","-","indoor","","","","","","","","","","","","","","",""
"html-keyboard-response","8","85158","0.0-2.0-4.0-1.0","6452.60000038147","","","<p>Az Ön válasza:</p><p>Beltéri.</p>","32","","","","","","","","","","","","","","","","",""
"image-keyboard-response","9","87161","0.0-2.0-4.0-0.1","1421.1999998092651","","","stimuli/Set_2_rs/034a.jpg","67","-","indoor","","","","","","","","","","","","","","",""
"html-keyboard-response","10","90054","0.0-2.0-4.0-1.1","2390.9000000953674","","","<p>Az Ön válasza:</p><p>Beltéri.</p>","32","","","","","","","","","","","","","","","","",""
"image-keyboard-response","11","92057","0.0-2.0-4.0-0.2","1310.0999999046326","","","stimuli/Set_2_rs/049a.jpg","77","SL","outdoor","","","","","","","","","","","","","","",""
"html-keyboard-response","12","93782","0.0-2.0-4.0-1.2","1223.4000000953674","","","<p>Az Ön válasza:</p><p>Kültéri.</p>","32","","","","","","","","","","","","","","","","",""
"image-keyboard-response","13","95784","0.0-2.0-4.0-0.3","1262","","","stimuli/Set_2_rs/028a.jpg","67","SR","indoor","","","","","","","","","","","","","","",""
"html-keyboard-response","14","97878","0.0-2.0-4.0-1.3","1591.5","","","<p>Az Ön válasza:</p><p>Beltéri.</p>","32","","","","","","","","","","","","","","","","",""
"image-keyboard-response","15","99881","0.0-2.0-4.0-0.4","1725.4000000953674","","","stimuli/Set_2_rs/135a.jpg","67","SL","indoor","","","","","","","","","","","","","","",""
"html-keyboard-response","16","101781","0.0-2.0-4.0-1.4","1398","","","<p>Az Ön válasza:</p><p>Beltéri.</p>","32","","","","","","","","","","","","","","","","",""
"image-keyboard-response","17","103784","0.0-2.0-4.0-0.5","null","","","stimuli/Set_2_rs/137a.jpg","null","SR","null","","","","","","","","","","","","","","",""
"html-keyboard-response","18","106389","0.0-2.0-4.0-1.5","2103.699999809265","","","<p>Az Ön válasza:</p><p>Nem adott választ.</p>","32","","","","","","","","","","","","","","","","",""
"html-keyboard-response","19","115894","0.0-2.0-5.0-0.0","9503.099999904633","","","<p>Ez volt a gyakorlás. A feladat következik. A feladat alatt már nem kap visszajelzést.</p>","32","","","","","","","","","","","","","","","","",""
"html-keyboard-response","20","117896","0.0-2.0-5.0-1.0","null","","","<p>Kezdődik a feladat...</p>","null","","","","","","","","","","","","","","","","",""
"image-keyboard-response","21","120399","0.0-2.0-6.0-0.0","1195","","","stimuli/Set_1_rs/157a.jpg","67","","indoor","SR","","","","","","","","","","","","","",""
"image-keyboard-response","22","122901","0.0-2.0-6.0-0.1","1413.2000002861023","","","stimuli/Set_1_rs/009a.jpg","67","","indoor","SR","","","","","","","","","","","","","",""
"image-keyboard-response","23","125403","0.0-2.0-6.0-0.2","1247.3000001907349","","","stimuli/Set_1_rs/059a.jpg","67","","indoor","SL","","","","","","","","","","","","","",""
"image-keyboard-response","24","127905","0.0-2.0-6.0-0.3","1049","","","stimuli/Set_1_rs/024a.jpg","77","","outdoor","SR","","","","","","","","","","","","","",""
"image-keyboard-response","25","130408","0.0-2.0-6.0-0.4","946.1999998092651","","","stimuli/Set_1_rs/101a.jpg","67","","indoor","SL","","","","","","","","","","","","","",""
"image-keyboard-response","26","132909","0.0-2.0-6.0-0.5","1899.8999996185303","","","stimuli/Set_1_rs/137a.jpg","77","","outdoor","SR","","","","","","","","","","","","","",""
"image-keyboard-response","27","135412","0.0-2.0-6.0-0.6","1334.1999998092651","","","stimuli/Set_1_rs/011a.jpg","67","","indoor","SL","","","","","","","","","","","","","",""
"image-keyboard-response","28","137914","0.0-2.0-6.0-0.7","1711.9000000953674","","","stimuli/Set_1_rs/128a.jpg","67","","indoor","SL","","","","","","","","","","","","","",""
"image-keyboard-response","29","140417","0.0-2.0-6.0-0.8","1097.0999999046326","","","stimuli/Set_1_rs/083a.jpg","67","","indoor","SL","","","","","","","","","","","","","",""
"image-keyboard-response","30","142919","0.0-2.0-6.0-0.9","1395.1999998092651","","","stimuli/Set_1_rs/136a.jpg","67","","indoor","SR","","","","","","","","","","","","","",""
"image-keyboard-response","31","145421","0.0-2.0-6.0-0.10","1133","","","stimuli/Set_1_rs/103a.jpg","67","","indoor","SL","","","","","","","","","","","","","",""
"image-keyboard-response","32","147922","0.0-2.0-6.0-0.11","1031","","","stimuli/Set_1_rs/086a.jpg","67","","indoor","SR","","","","","","","","","","","","","",""
"image-keyboard-response","33","150425","0.0-2.0-6.0-0.12","992.7999997138977","","","stimuli/Set_1_rs/099a.jpg","77","","outdoor","SL","","","","","","","","","","","","","",""
"image-keyboard-response","34","152928","0.0-2.0-6.0-0.13","2026.4000000953674","","","stimuli/Set_1_rs/178a.jpg","67","","indoor","SL","","","","","","","","","","","","","",""
"image-keyboard-response","35","155429","0.0-2.0-6.0-0.14","1715.9000000953674","","","stimuli/Set_1_rs/134a.jpg","67","","indoor","SL","","","","","","","","","","","","","",""
"image-keyboard-response","36","157931","0.0-2.0-6.0-0.15","1694.2000002861023","","","stimuli/Set_1_rs/156a.jpg","67","","indoor","SL","","","","","","","","","","","","","",""
"image-keyboard-response","37","160434","0.0-2.0-6.0-0.16","1640.3000001907349","","","stimuli/Set_1_rs/054a.jpg","67","","indoor","SR","","","","","","","","","","","","","",""
"image-keyboard-response","38","162935","0.0-2.0-6.0-0.17","2034","","","stimuli/Set_1_rs/092a.jpg","77","","outdoor","SL","","","","","","","","","","","","","",""
"image-keyboard-response","39","165438","0.0-2.0-6.0-0.18","1804.4000000953674","","","stimuli/Set_1_rs/031a.jpg","67","","indoor","SL","","","","","","","","","","","","","",""
"image-keyboard-response","40","167940","0.0-2.0-6.0-0.19","1509.2999997138977","","","stimuli/Set_1_rs/013a.jpg","67","","indoor","SL","","","","","","","","","","","","","",""
"image-keyboard-response","41","170442","0.0-2.0-6.0-0.20","1215.1999998092651","","","stimuli/Set_1_rs/075a.jpg","67","","indoor","SL","","","","","","","","","","","","","",""
"image-keyboard-response","42","172943","0.0-2.0-6.0-0.21","1577.7999997138977","","","stimuli/Set_1_rs/150a.jpg","67","","indoor","SR","","","","","","","","","","","","","",""
"image-keyboard-response","43","175445","0.0-2.0-6.0-0.22","964.3999996185303","","","stimuli/Set_1_rs/094a.jpg","67","","indoor","SL","","","","","","","","","","","","","",""
"image-keyboard-response","44","177948","0.0-2.0-6.0-0.23","1054.0999999046326","","","stimuli/Set_1_rs/090a.jpg","77","","outdoor","SL","","","","","","","","","","","","","",""
"image-keyboard-response","45","180450","0.0-2.0-6.0-0.24","1350.3000001907349","","","stimuli/Set_1_rs/192a.jpg","67","","indoor","SR","","","","","","","","","","","","","",""
"image-keyboard-response","46","182952","0.0-2.0-6.0-0.25","1025.1999998092651","","","stimuli/Set_1_rs/116a.jpg","67","","indoor","SL","","","","","","","","","","","","","",""
"image-keyboard-response","47","185454","0.0-2.0-6.0-0.26","1035.3999996185303","","","stimuli/Set_1_rs/044a.jpg","67","","indoor","SR","","","","","","","","","","","","","",""
"image-keyboard-response","48","187956","0.0-2.0-6.0-0.27","1413.0999999046326","","","stimuli/Set_1_rs/114a.jpg","67","","indoor","SL","","","","","","","","","","","","","",""
"image-keyboard-response","49","190459","0.0-2.0-6.0-0.28","1150.3000001907349","","","stimuli/Set_1_rs/112a.jpg","67","","indoor","SR","","","","","","","","","","","","","",""
"image-keyboard-response","50","192961","0.0-2.0-6.0-0.29","1191.8000001907349","","","stimuli/Set_1_rs/052a.jpg","67","","indoor","SL","","","","","","","","","","","","","",""
"image-keyboard-response","51","195462","0.0-2.0-6.0-0.30","1442.0999999046326","","","stimuli/Set_1_rs/058a.jpg","67","","indoor","SR","","","","","","","","","","","","","",""
"image-keyboard-response","52","197965","0.0-2.0-6.0-0.31","1115.9000000953674","","","stimuli/Set_1_rs/023a.jpg","67","","indoor","SL","","","","","","","","","","","","","",""
"image-keyboard-response","53","200469","0.0-2.0-6.0-0.32","1844.2000002861023","","","stimuli/Set_1_rs/030a.jpg","67","","indoor","SR","","","","","","","","","","","","","",""
"image-keyboard-response","54","202971","0.0-2.0-6.0-0.33","2077.0999999046326","","","stimuli/Set_1_rs/091a.jpg","77","","outdoor","SR","","","","","","","","","","","","","",""
"image-keyboard-response","55","205473","0.0-2.0-6.0-0.34","999.2000002861023","","","stimuli/Set_1_rs/147a.jpg","67","","indoor","SR","","","","","","","","","","","","","",""
"image-keyboard-response","56","207975","0.0-2.0-6.0-0.35","1361.7000002861023","","","stimuli/Set_1_rs/063a.jpg","77","","outdoor","SR","","","","","","","","","","","","","",""
"image-keyboard-response","57","210478","0.0-2.0-6.0-0.36","1035","","","stimuli/Set_1_rs/040a.jpg","77","","outdoor","SR","","","","","","","","","","","","","",""
"image-keyboard-response","58","212979","0.0-2.0-6.0-0.37","900.5","","","stimuli/Set_1_rs/038a.jpg","67","","indoor","SR","","","","","","","","","","","","","",""
"image-keyboard-response","59","215481","0.0-2.0-6.0-0.38","1503.0999999046326","","","stimuli/Set_1_rs/100a.jpg","77","","outdoor","SL","","","","","","","","","","","","","",""
"image-keyboard-response","60","217983","0.0-2.0-6.0-0.39","1224.7999997138977","","","stimuli/Set_1_rs/109a.jpg","67","","indoor","SR","","","","","","","","","","","","","",""
"image-keyboard-response","61","220486","0.0-2.0-6.0-0.40","1266.1999998092651","","","stimuli/Set_1_rs/191a.jpg","67","","indoor","SR","","","","","","","","","","","","","",""
"image-keyboard-response","62","222988","0.0-2.0-6.0-0.41","1436.1999998092651","","","stimuli/Set_1_rs/061a.jpg","67","","indoor","SL","","","","","","","","","","","","","",""
"image-keyboard-response","63","225490","0.0-2.0-6.0-0.42","1558.5","","","stimuli/Set_1_rs/162a.jpg","67","","indoor","SR","","","","","","","","","","","","","",""
"image-keyboard-response","64","227991","0.0-2.0-6.0-0.43","1424.2999997138977","","","stimuli/Set_1_rs/046a.jpg","77","","outdoor","SR","","","","","","","","","","","","","",""
"image-keyboard-response","65","230494","0.0-2.0-6.0-0.44","1226.0999999046326","","","stimuli/Set_1_rs/155a.jpg","77","","outdoor","SL","","","","","","","","","","","","","",""
"image-keyboard-response","66","232997","0.0-2.0-6.0-0.45","1107.8000001907349","","","stimuli/Set_1_rs/010a.jpg","67","","indoor","SR","","","","","","","","","","","","","",""
"image-keyboard-response","67","235499","0.0-2.0-6.0-0.46","1356.9000000953674","","","stimuli/Set_1_rs/142a.jpg","77","","outdoor","SR","","","","","","","","","","","","","",""
"image-keyboard-response","68","238001","0.0-2.0-6.0-0.47","1542.4000000953674","","","stimuli/Set_1_rs/045a.jpg","67","","indoor","SL","","","","","","","","","","","","","",""
"image-keyboard-response","69","240504","0.0-2.0-6.0-0.48","1087.9000000953674","","","stimuli/Set_1_rs/070a.jpg","77","","outdoor","SR","","","","","","","","","","","","","",""
"image-keyboard-response","70","243006","0.0-2.0-6.0-0.49","1242.3999996185303","","","stimuli/Set_1_rs/022a.jpg","67","","indoor","SL","","","","","","","","","","","","","",""
"image-keyboard-response","71","245508","0.0-2.0-6.0-0.50","1092","","","stimuli/Set_1_rs/021a.jpg","77","","outdoor","SR","","","","","","","","","","","","","",""
"image-keyboard-response","72","248010","0.0-2.0-6.0-0.51","1517.8000001907349","","","stimuli/Set_1_rs/098a.jpg","67","","indoor","SL","","","","","","","","","","","","","",""
"image-keyboard-response","73","250513","0.0-2.0-6.0-0.52","1143.5","","","stimuli/Set_1_rs/008a.jpg","67","","indoor","SL","","","","","","","","","","","","","",""
"image-keyboard-response","74","253015","0.0-2.0-6.0-0.53","881.1000003814697","","","stimuli/Set_1_rs/012a.jpg","67","","indoor","SL","","","","","","","","","","","","","",""
"image-keyboard-response","75","255518","0.0-2.0-6.0-0.54","907","","","stimuli/Set_1_rs/153a.jpg","67","","indoor","SR","","","","","","","","","","","","","",""
"image-keyboard-response","76","258020","0.0-2.0-6.0-0.55","1396.3000001907349","","","stimuli/Set_1_rs/068a.jpg","67","","indoor","SL","","","","","","","","","","","","","",""
"image-keyboard-response","77","260522","0.0-2.0-6.0-0.56","1165.7999997138977","","","stimuli/Set_1_rs/140a.jpg","67","","indoor","SL","","","","","","","","","","","","","",""
"image-keyboard-response","78","263025","0.0-2.0-6.0-0.57","1799.8999996185303","","","stimuli/Set_1_rs/029a.jpg","67","","indoor","SR","","","","","","","","","","","","","",""
"image-keyboard-response","79","265526","0.0-2.0-6.0-0.58","1009.7999997138977","","","stimuli/Set_1_rs/049a.jpg","77","","outdoor","SR","","","","","","","","","","","","","",""
"image-keyboard-response","80","268028","0.0-2.0-6.0-0.59","860.0999999046326","","","stimuli/Set_1_rs/180a.jpg","67","","indoor","SR","","","","","","","","","","","","","",""
"image-keyboard-response","81","270531","0.0-2.0-6.0-0.60","1445.4000000953674","","","stimuli/Set_1_rs/033a.jpg","67","","indoor","SL","","","","","","","","","","","","","",""
"image-keyboard-response","82","273033","0.0-2.0-6.0-0.61","1887.5999999046326","","","stimuli/Set_1_rs/119a.jpg","77","","outdoor","SL","","","","","","","","","","","","","",""
"image-keyboard-response","83","275535","0.0-2.0-6.0-0.62","1545.4000000953674","","","stimuli/Set_1_rs/118a.jpg","77","","outdoor","SR","","","","","","","","","","","","","",""
"image-keyboard-response","84","278036","0.0-2.0-6.0-0.63","1667.5999999046326","","","stimuli/Set_1_rs/107a.jpg","77","","outdoor","SR","","","","","","","","","","","","","",""
"html-keyboard-response","85","324403","0.0-2.0-7.0","46366.40000009537","","","<p>Vége a feladat első részének. Tartson egy pár perces szünetet.</p>","32","","","","","","","","","","","","","","","","",""
"html-keyboard-response","86","378435","0.0-2.0-8.0-0.0","54030.199999809265","","","<p>A következőkben ismét tárgyak jelennek majd meg a képernyőn, egymás után.<br>Az Ön feladata eldönteni, látta-e már ezeket a tárgyakat a vizsgálat első felében.</p>		        			<p>Amennyiben pontosan ugyanezt a tárgyat látta (a tárgy <i>régi</i>), nyomja le a <b>C</b> billentyűt.</p>		        			<p>Amennyiben hasonló tárgyat látott (a tárgy <i>hasonló</i>), nyomja le a <b>B</b> billentyűt.</p>		        			<p>Amennyiben nem látta ezt a tárgyat az első részben (a tárgy <i>új</i>), nyomja le az <b>M</b> billentyűt.</p>","32","","","","","","","","","","","","","","","","",""
"html-keyboard-response","87","380437","0.0-2.0-8.0-1.0","null","","","<p>Kezdődik a gyakorlás...</p>","null","","","","","","","","","","","","","","","","",""
"image-keyboard-response","88","384439","0.0-2.0-9.0-0.0","1227.2999997138977","","","stimuli/Set_2_rs/049b.jpg","66","","","TL","l","false","s","","","","","","","","","","",""
"html-keyboard-response","89","388178","0.0-2.0-9.0-1.0","3736.800000190735","","","<p>A helyes válasz: Hasonló.</p><p>Az Ön válasza: Hasonló.</p>","32","","","","","","","","","","","","","","","","",""
"image-keyboard-response","90","392181","0.0-2.0-9.0-0.1","2462","","","stimuli/Set_2_rs/018b.jpg","77","","","TF","n","true","n","","","","","","","","","","",""
"html-keyboard-response","91","394626","0.0-2.0-9.0-1.1","2443.5","","","<p>A helyes válasz: Új.</p><p>Az Ön válasza: Új.</p>","32","","","","","","","","","","","","","","","","",""
"image-keyboard-response","92","398628","0.0-2.0-9.0-0.2","1661.8999996185303","","","stimuli/Set_2_rs/028a.jpg","67","","","TR","o","true","o","","","","","","","","","","",""
"html-keyboard-response","93","401010","0.0-2.0-9.0-1.2","2380","","","<p>A helyes válasz: Régi.</p><p>Az Ön válasza: Régi.</p>","32","","","","","","","","","","","","","","","","",""
"image-keyboard-response","94","405013","0.0-2.0-9.0-0.3","1805.5","","","stimuli/Set_2_rs/137a.jpg","67","","","TR","o","true","o","","","","","","","","","","",""
"html-keyboard-response","95","406914","0.0-2.0-9.0-1.3","1899.5999999046326","","","<p>A helyes válasz: Régi.</p><p>Az Ön válasza: Régi.</p>","32","","","","","","","","","","","","","","","","",""
"image-keyboard-response","96","410917","0.0-2.0-9.0-0.4","1373.8000001907349","","","stimuli/Set_2_rs/135b.jpg","67","","","TL","l","false","o","","","","","","","","","","",""
"html-keyboard-response","97","412002","0.0-2.0-9.0-1.4","1083.5999999046326","","","<p>A helyes válasz: Hasonló.</p><p>Az Ön válasza: Régi.</p>","32","","","","","","","","","","","","","","","","",""
"image-keyboard-response","98","416005","0.0-2.0-9.0-0.5","null","","","stimuli/Set_2_rs/019a.jpg","null","","","TF","n","false","null","","","","","","","","","","",""
"html-keyboard-response","99","418594","0.0-2.0-9.0-1.5","2587.5","","","<p>A helyes válasz: Új.</p><p>Nem adott választ.</p>","32","","","","","","","","","","","","","","","","",""
"html-keyboard-response","100","429010","0.0-2.0-10.0-0.0","10415.099999904633","","","<p>Ez volt a gyakorlás. A feladat következik. A feladat alatt már nem kap visszajelzést.</p>","32","","","","","","","","","","","","","","","","",""
"html-keyboard-response","101","431012","0.0-2.0-10.0-1.0","null","","","<p>Kezdődik a feladat...</p>","null","","","","","","","","","","","","","","","","",""
"image-keyboard-response","102","435515","0.0-2.0-11.0-0.0","2187.5999999046326","","","stimuli/Set_1_rs/181a.jpg","66","","","TF","n","false","s","","","","","","","","","","",""
"image-keyboard-response","103","440019","0.0-2.0-11.0-0.1","1236","","","stimuli/Set_1_rs/152a.jpg","77","","","TF","n","true","n","","","","","","","","","","",""
"image-keyboard-response","104","444522","0.0-2.0-11.0-0.2","1356.1999998092651","","","stimuli/Set_1_rs/090b.jpg","66","","","TL","s","true","s","","","","","","","","","","",""
"image-keyboard-response","105","449025","0.0-2.0-11.0-0.3","1189.5","","","stimuli/Set_1_rs/126a.jpg","77","","","TF","n","true","n","","","","","","","","","","",""
"image-keyboard-response","106","453528","0.0-2.0-11.0-0.4","1661.9000000953674","","","stimuli/Set_1_rs/068b.jpg","67","","","TL","s","false","o","","","","","","","","","","",""
"image-keyboard-response","107","458031","0.0-2.0-11.0-0.5","1046.9000000953674","","","stimuli/Set_1_rs/054a.jpg","67","","","TR","o","true","o","","","","","","","","","","",""
"image-keyboard-response","108","462535","0.0-2.0-11.0-0.6","1071.7000002861023","","","stimuli/Set_1_rs/162a.jpg","67","","","TR","o","true","o","","","","","","","","","","",""
"image-keyboard-response","109","467038","0.0-2.0-11.0-0.7","2024.2000002861023","","","stimuli/Set_1_rs/019a.jpg","77","","","TF","n","true","n","","","","","","","","","","",""
"image-keyboard-response","110","471541","0.0-2.0-11.0-0.8","2049.2000002861023","","","stimuli/Set_1_rs/119b.jpg","67","","","TL","s","false","o","","","","","","","","","","",""
"image-keyboard-response","111","476044","0.0-2.0-11.0-0.9","1562.3000001907349","","","stimuli/Set_1_rs/052b.jpg","67","","","TL","s","false","o","","","","","","","","","","",""
"image-keyboard-response","112","480547","0.0-2.0-11.0-0.10","1698.5999999046326","","","stimuli/Set_1_rs/135a.jpg","77","","","TF","n","true","n","","","","","","","","","","",""
"image-keyboard-response","113","485050","0.0-2.0-11.0-0.11","1067.5","","","stimuli/Set_1_rs/004a.jpg","77","","","TF","n","true","n","","","","","","","","","","",""
"image-keyboard-response","114","489553","0.0-2.0-11.0-0.12","1204.5","","","stimuli/Set_1_rs/072a.jpg","77","","","TF","n","true","n","","","","","","","","","","",""
"image-keyboard-response","115","494057","0.0-2.0-11.0-0.13","1165.4000000953674","","","stimuli/Set_1_rs/028a.jpg","77","","","TF","n","true","n","","","","","","","","","","",""
"image-keyboard-response","116","498560","0.0-2.0-11.0-0.14","1462","","","stimuli/Set_1_rs/091a.jpg","67","","","TR","o","true","o","","","","","","","","","","",""
"image-keyboard-response","117","503063","0.0-2.0-11.0-0.15","1246.5","","","stimuli/Set_1_rs/108a.jpg","77","","","TF","n","true","n","","","","","","","","","","",""
"image-keyboard-response","118","507566","0.0-2.0-11.0-0.16","1719.8000001907349","","","stimuli/Set_1_rs/146a.jpg","77","","","TF","n","true","n","","","","","","","","","","",""
"image-keyboard-response","119","512069","0.0-2.0-11.0-0.17","1840.0999999046326","","","stimuli/Set_1_rs/013b.jpg","77","","","TL","s","false","n","","","","","","","","","","",""
"image-keyboard-response","120","516573","0.0-2.0-11.0-0.18","1241.1000003814697","","","stimuli/Set_1_rs/141a.jpg","77","","","TF","n","true","n","","","","","","","","","","",""
"image-keyboard-response","121","521076","0.0-2.0-11.0-0.19","1730.1000003814697","","","stimuli/Set_1_rs/156b.jpg","77","","","TL","s","false","n","","","","","","","","","","",""
"image-keyboard-response","122","525579","0.0-2.0-11.0-0.20","1754.7000002861023","","","stimuli/Set_1_rs/024a.jpg","67","","","TR","o","true","o","","","","","","","","","","",""
"image-keyboard-response","123","530082","0.0-2.0-11.0-0.21","1123.6999998092651","","","stimuli/Set_1_rs/046a.jpg","67","","","TR","o","true","o","","","","","","","","","","",""
"image-keyboard-response","124","534586","0.0-2.0-11.0-0.22","1180.0999999046326","","","stimuli/Set_1_rs/100b.jpg","67","","","TL","s","false","o","","","","","","","","","","",""
"image-keyboard-response","125","539089","0.0-2.0-11.0-0.23","1092.6999998092651","","","stimuli/Set_1_rs/080a.jpg","77","","","TF","n","true","n","","","","","","","","","","",""
"image-keyboard-response","126","543592","0.0-2.0-11.0-0.24","1277.5999999046326","","","stimuli/Set_1_rs/094b.jpg","67","","","TL","s","false","o","","","","","","","","","","",""
"image-keyboard-response","127","548095","0.0-2.0-11.0-0.25","1062.3000001907349","","","stimuli/Set_1_rs/190a.jpg","77","","","TF","n","true","n","","","","","","","","","","",""
"image-keyboard-response","128","552599","0.0-2.0-11.0-0.26","1614.9000000953674","","","stimuli/Set_1_rs/137a.jpg","67","","","TR","o","true","o","","","","","","","","","","",""
"image-keyboard-response","129","557102","0.0-2.0-11.0-0.27","839.2000002861023","","","stimuli/Set_1_rs/180a.jpg","67","","","TR","o","true","o","","","","","","","","","","",""
"image-keyboard-response","130","561605","0.0-2.0-11.0-0.28","2384.2000002861023","","","stimuli/Set_1_rs/134b.jpg","67","","","TL","s","false","o","","","","","","","","","","",""
"image-keyboard-response","131","566108","0.0-2.0-11.0-0.29","1049.6000003814697","","","stimuli/Set_1_rs/088a.jpg","77","","","TF","n","true","n","","","","","","","","","","",""
"image-keyboard-response","132","570612","0.0-2.0-11.0-0.30","865.8999996185303","","","stimuli/Set_1_rs/165a.jpg","77","","","TF","n","true","n","","","","","","","","","","",""
"image-keyboard-response","133","575115","0.0-2.0-11.0-0.31","1738.1999998092651","","","stimuli/Set_1_rs/075b.jpg","77","","","TL","s","false","n","","","","","","","","","","",""
"image-keyboard-response","134","579618","0.0-2.0-11.0-0.32","1378.8999996185303","","","stimuli/Set_1_rs/191a.jpg","67","","","TR","o","true","o","","","","","","","","","","",""
"image-keyboard-response","135","584121","0.0-2.0-11.0-0.33","939.7999997138977","","","stimuli/Set_1_rs/112a.jpg","67","","","TR","o","true","o","","","","","","","","","","",""
"image-keyboard-response","136","588624","0.0-2.0-11.0-0.34","1029","","","stimuli/Set_1_rs/171a.jpg","77","","","TF","n","true","n","","","","","","","","","","",""
"image-keyboard-response","137","593128","0.0-2.0-11.0-0.35","1261.7999997138977","","","stimuli/Set_1_rs/021a.jpg","67","","","TR","o","true","o","","","","","","","","","","",""
"image-keyboard-response","138","597631","0.0-2.0-11.0-0.36","917.5","","","stimuli/Set_1_rs/157a.jpg","67","","","TR","o","true","o","","","","","","","","","","",""
"image-keyboard-response","139","602134","0.0-2.0-11.0-0.37","2158.300000190735","","","stimuli/Set_1_rs/059b.jpg","66","","","TL","s","true","s","","","","","","","","","","",""
"image-keyboard-response","140","606637","0.0-2.0-11.0-0.38","1767.5999999046326","","","stimuli/Set_1_rs/153a.jpg","66","","","TR","o","false","s","","","","","","","","","","",""
"image-keyboard-response","141","611141","0.0-2.0-11.0-0.39","1328.4000000953674","","","stimuli/Set_1_rs/002a.jpg","77","","","TF","n","true","n","","","","","","","","","","",""
"image-keyboard-response","142","615644","0.0-2.0-11.0-0.40","952.6999998092651","","","stimuli/Set_1_rs/041a.jpg","77","","","TF","n","true","n","","","","","","","","","","",""
"image-keyboard-response","143","620147","0.0-2.0-11.0-0.41","993.6000003814697","","","stimuli/Set_1_rs/012b.jpg","67","","","TL","s","false","o","","","","","","","","","","",""
"image-keyboard-response","144","624650","0.0-2.0-11.0-0.42","906.6999998092651","","","stimuli/Set_1_rs/083b.jpg","77","","","TL","s","false","n","","","","","","","","","","",""
"image-keyboard-response","145","629152","0.0-2.0-11.0-0.43","1811.7999997138977","","","stimuli/Set_1_rs/051a.jpg","77","","","TF","n","true","n","","","","","","","","","","",""
"image-keyboard-response","146","633655","0.0-2.0-11.0-0.44","813.5999999046326","","","stimuli/Set_1_rs/168a.jpg","77","","","TF","n","true","n","","","","","","","","","","",""
"image-keyboard-response","147","638158","0.0-2.0-11.0-0.45","918.5999999046326","","","stimuli/Set_1_rs/155b.jpg","67","","","TL","s","false","o","","","","","","","","","","",""
"image-keyboard-response","148","642662","0.0-2.0-11.0-0.46","1423.5","","","stimuli/Set_1_rs/045b.jpg","67","","","TL","s","false","o","","","","","","","","","","",""
"image-keyboard-response","149","647165","0.0-2.0-11.0-0.47","2471.5","","","stimuli/Set_1_rs/031b.jpg","66","","","TL","s","true","s","","","","","","","","","","",""
"image-keyboard-response","150","651668","0.0-2.0-11.0-0.48","1328.2000002861023","","","stimuli/Set_1_rs/136a.jpg","67","","","TR","o","true","o","","","","","","","","","","",""
"image-keyboard-response","151","656171","0.0-2.0-11.0-0.49","825.3000001907349","","","stimuli/Set_1_rs/053a.jpg","77","","","TF","n","true","n","","","","","","","","","","",""
"image-keyboard-response","152","660674","0.0-2.0-11.0-0.50","1090","","","stimuli/Set_1_rs/061b.jpg","67","","","TL","s","false","o","","","","","","","","","","",""
"image-keyboard-response","153","665178","0.0-2.0-11.0-0.51","1162.7999997138977","","","stimuli/Set_1_rs/062a.jpg","77","","","TF","n","true","n","","","","","","","","","","",""
"image-keyboard-response","154","669682","0.0-2.0-11.0-0.52","2018.6999998092651","","","stimuli/Set_1_rs/009a.jpg","67","","","TR","o","true","o","","","","","","","","","","",""
"image-keyboard-response","155","674184","0.0-2.0-11.0-0.53","1147.1999998092651","","","stimuli/Set_1_rs/099b.jpg","67","","","TL","s","false","o","","","","","","","","","","",""
"image-keyboard-response","156","678688","0.0-2.0-11.0-0.54","1828.5","","","stimuli/Set_1_rs/030a.jpg","67","","","TR","o","true","o","","","","","","","","","","",""
"image-keyboard-response","157","683191","0.0-2.0-11.0-0.55","1212.8000001907349","","","stimuli/Set_1_rs/029a.jpg","67","","","TR","o","true","o","","","","","","","","","","",""
"image-keyboard-response","158","687693","0.0-2.0-11.0-0.56","1142.2999997138977","","","stimuli/Set_1_rs/140b.jpg","67","","","TL","s","false","o","","","","","","","","","","",""
"image-keyboard-response","159","692196","0.0-2.0-11.0-0.57","1055.5999999046326","","","stimuli/Set_1_rs/182a.jpg","77","","","TF","n","true","n","","","","","","","","","","",""
"image-keyboard-response","160","696699","0.0-2.0-11.0-0.58","1656.4000000953674","","","stimuli/Set_1_rs/151a.jpg","77","","","TF","n","true","n","","","","","","","","","","",""
"image-keyboard-response","161","701202","0.0-2.0-11.0-0.59","1329.5","","","stimuli/Set_1_rs/142a.jpg","67","","","TR","o","true","o","","","","","","","","","","",""
"image-keyboard-response","162","705705","0.0-2.0-11.0-0.60","938.5","","","stimuli/Set_1_rs/070a.jpg","67","","","TR","o","true","o","","","","","","","","","","",""
"image-keyboard-response","163","710208","0.0-2.0-11.0-0.61","979.8999996185303","","","stimuli/Set_1_rs/121a.jpg","77","","","TF","n","true","n","","","","","","","","","","",""
"image-keyboard-response","164","714711","0.0-2.0-11.0-0.62","1260.3999996185303","","","stimuli/Set_1_rs/008b.jpg","67","","","TL","s","false","o","","","","","","","","","","",""
"image-keyboard-response","165","719214","0.0-2.0-11.0-0.63","949.5","","","stimuli/Set_1_rs/092b.jpg","77","","","TL","s","false","n","","","","","","","","","","",""
"image-keyboard-response","166","723718","0.0-2.0-11.0-0.64","1149.9000000953674","","","stimuli/Set_1_rs/192a.jpg","67","","","TR","o","true","o","","","","","","","","","","",""
"image-keyboard-response","167","728221","0.0-2.0-11.0-0.65","950.9000000953674","","","stimuli/Set_1_rs/147a.jpg","67","","","TR","o","true","o","","","","","","","","","","",""
"image-keyboard-response","168","732724","0.0-2.0-11.0-0.66","831.5","","","stimuli/Set_1_rs/032a.jpg","77","","","TF","n","true","n","","","","","","","","","","",""
"image-keyboard-response","169","737228","0.0-2.0-11.0-0.67","1144.2000002861023","","","stimuli/Set_1_rs/128b.jpg","67","","","TL","s","false","o","","","","","","","","","","",""
"image-keyboard-response","170","741731","0.0-2.0-11.0-0.68","1088.5","","","stimuli/Set_1_rs/186a.jpg","77","","","TF","n","true","n","","","","","","","","","","",""
"image-keyboard-response","171","746234","0.0-2.0-11.0-0.69","1097.6000003814697","","","stimuli/Set_1_rs/109a.jpg","67","","","TR","o","true","o","","","","","","","","","","",""
"image-keyboard-response","172","750736","0.0-2.0-11.0-0.70","978.2999997138977","","","stimuli/Set_1_rs/160a.jpg","77","","","TF","n","true","n","","","","","","","","","","",""
"image-keyboard-response","173","755239","0.0-2.0-11.0-0.71","1292","","","stimuli/Set_1_rs/086a.jpg","67","","","TR","o","true","o","","","","","","","","","","",""
"image-keyboard-response","174","759743","0.0-2.0-11.0-0.72","1060.5999999046326","","","stimuli/Set_1_rs/023b.jpg","67","","","TL","s","false","o","","","","","","","","","","",""
"image-keyboard-response","175","764246","0.0-2.0-11.0-0.73","1117.0999999046326","","","stimuli/Set_1_rs/114b.jpg","67","","","TL","s","false","o","","","","","","","","","","",""
"image-keyboard-response","176","768748","0.0-2.0-11.0-0.74","918.5999999046326","","","stimuli/Set_1_rs/033b.jpg","67","","","TL","s","false","o","","","","","","","","","","",""
"image-keyboard-response","177","773251","0.0-2.0-11.0-0.75","1055.9000000953674","","","stimuli/Set_1_rs/010a.jpg","67","","","TR","o","true","o","","","","","","","","","","",""
"image-keyboard-response","178","777753","0.0-2.0-11.0-0.76","1033.4000000953674","","","stimuli/Set_1_rs/150a.jpg","67","","","TR","o","true","o","","","","","","","","","","",""
"image-keyboard-response","179","782256","0.0-2.0-11.0-0.77","1730.1000003814697","","","stimuli/Set_1_rs/038a.jpg","67","","","TR","o","true","o","","","","","","","","","","",""
"image-keyboard-response","180","786759","0.0-2.0-11.0-0.78","1195.1000003814697","","","stimuli/Set_1_rs/022b.jpg","67","","","TL","s","false","o","","","","","","","","","","",""
"image-keyboard-response","181","791261","0.0-2.0-11.0-0.79","1092.5","","","stimuli/Set_1_rs/018a.jpg","77","","","TF","n","true","n","","","","","","","","","","",""
"image-keyboard-response","182","795764","0.0-2.0-11.0-0.80","862.4000000953674","","","stimuli/Set_1_rs/081a.jpg","77","","","TF","n","true","n","","","","","","","","","","",""
"image-keyboard-response","183","800267","0.0-2.0-11.0-0.81","1271.2999997138977","","","stimuli/Set_1_rs/107a.jpg","67","","","TR","o","true","o","","","","","","","","","","",""
"image-keyboard-response","184","804769","0.0-2.0-11.0-0.82","1136.7999997138977","","","stimuli/Set_1_rs/101b.jpg","67","","","TL","s","false","o","","","","","","","","","","",""
"image-keyboard-response","185","809272","0.0-2.0-11.0-0.83","1130.1999998092651","","","stimuli/Set_1_rs/178b.jpg","67","","","TL","s","false","o","","","","","","","","","","",""
"image-keyboard-response","186","813775","0.0-2.0-11.0-0.84","2067.699999809265","","","stimuli/Set_1_rs/103b.jpg","77","","","TL","s","false","n","","","","","","","","","","",""
"image-keyboard-response","187","818278","0.0-2.0-11.0-0.85","1004.8000001907349","","","stimuli/Set_1_rs/116b.jpg","67","","","TL","s","false","o","","","","","","","","","","",""
"image-keyboard-response","188","822780","0.0-2.0-11.0-0.86","2277.9000000953674","","","stimuli/Set_1_rs/122a.jpg","77","","","TF","n","true","n","","","","","","","","","","",""
"image-keyboard-response","189","827283","0.0-2.0-11.0-0.87","799.4000000953674","","","stimuli/Set_1_rs/044a.jpg","67","","","TR","o","true","o","","","","","","","","","","",""
"image-keyboard-response","190","831785","0.0-2.0-11.0-0.88","1016.4000000953674","","","stimuli/Set_1_rs/049a.jpg","67","","","TR","o","true","o","","","","","","","","","","",""
"image-keyboard-response","191","836288","0.0-2.0-11.0-0.89","754","","","stimuli/Set_1_rs/118a.jpg","67","","","TR","o","true","o","","","","","","","","","","",""
"image-keyboard-response","192","840791","0.0-2.0-11.0-0.90","698.8999996185303","","","stimuli/Set_1_rs/040a.jpg","67","","","TR","o","true","o","","","","","","","","","","",""
"image-keyboard-response","193","845294","0.0-2.0-11.0-0.91","755.7999997138977","","","stimuli/Set_1_rs/011b.jpg","67","","","TL","s","false","o","","","","","","","","","","",""
"image-keyboard-response","194","849796","0.0-2.0-11.0-0.92","861.5","","","stimuli/Set_1_rs/087a.jpg","77","","","TF","n","true","n","","","","","","","","","","",""
"image-keyboard-response","195","854299","0.0-2.0-11.0-0.93","982.9000000953674","","","stimuli/Set_1_rs/063a.jpg","67","","","TR","o","true","o","","","","","","","","","","",""
"image-keyboard-response","196","858802","0.0-2.0-11.0-0.94","1376.1999998092651","","","stimuli/Set_1_rs/098b.jpg","67","","","TL","s","false","o","","","","","","","","","","",""
"image-keyboard-response","197","863305","0.0-2.0-11.0-0.95","969.4000000953674","","","stimuli/Set_1_rs/058a.jpg","67","","","TR","o","true","o","","","","","","","","","","",""
"html-keyboard-response","198","900253","0.0-3.0","36946.7999997139","","","<p>Vége a feladatnak. Köszönjük a részvételt!</p>","32","","","","","","","33","1","0","24","4","6","0","1","32","0.9705882352941176","0.0873440285204991"
