itemno,wordA,wordB,enc_gyak.thisRepN,enc_gyak.thisTrialN,enc_gyak.thisN,enc_gyak.thisIndex,rec_gyak.thisRepN,rec_gyak.thisTrialN,rec_gyak.thisN,rec_gyak.thisIndex,repeat_task.thisRepN,repeat_task.thisTrialN,repeat_task.thisN,repeat_task.thisIndex,enc_loop.thisRepN,enc_loop.thisTrialN,enc_loop.thisN,enc_loop.thisIndex,test_loop.thisRepN,test_loop.thisTrialN,test_loop.thisN,test_loop.thisIndex,int.started,int.stopped,int_key.keys,int_key.rt,int_key.started,int_key.stopped,prepare_gyak_text.started,prepare_gyak_text.stopped,fix.started,fix.stopped,word1.started,word1.stopped,word2.started,word2.stopped,gykrec_inst.started,gykrec_inst.stopped,gyakrec_inst.keys,gyakrec_inst.rt,gyakrec_inst.started,gyakrec_inst.stopped,cueword,cueword1.started,cueword1.stopped,cue_resp.keys,cue_resp.rt,cue_resp.started,cue_resp.stopped,cue_cont_text.started,cue_cont_text.stopped,cue_space.started,cue_space.stopped,test_ansbox.text,test_ansbox.started,test_ansbox.stopped,ans_text.started,ans_text.stopped,ans_continue.keys,ans_continue.rt,ans_continue.started,ans_continue.stopped,feedback_text.started,feedback_text.stopped,feedback_cont.keys,feedback_cont.rt,feedback_cont.started,feedback_cont.stopped,main_prep.started,main_prep.stopped,main_prep_resp.keys,main_prep_resp.rt,main_prep_resp.started,main_prep_resp.stopped,preparation.started,preparation.stopped,break_text.started,break_text.stopped,key_resp.keys,key_resp.rt,key_resp.started,key_resp.stopped,test_instruction.started,test_instruction.stopped,test_i_key.keys,test_i_key.rt,test_i_key.started,test_i_key.stopped,rep_routine.keys,rep_routine.rt,rep_routine.started,rep_routine.stopped,encrep_textbox.started,encrep_textbox.stopped,Résztvevő kódja,date,expName,psychopyVersion,frameRate,
,,,,,,,,,,,,,,,,,,,,,,,13.547421973198652,None,4,115.42026444268413,13.547421973198652,None,,,,,,,,,,,,,,,,,,,,,,,,,,,,,,,,,,,,,,,,,,,,,,,,,,,,,,,,,,,,,,,,,,,247786,2022_Jun_07_1136,palt,2021.1.2,59.47497800977298,
3,majoránna,szikla,0,0,0,2,,,,,,,,,,,,,,,,,,,,,,,128.99366013077088,None,132.04719431628473,None,133.0161605242174,None,133.0161605242174,None,,,,,,,,,,,,,,,,,,,,,,,,,,,,,,,,,,,,,,,,,,,,,,,,,,,,,,,,,,,247786,2022_Jun_07_1136,palt,2021.1.2,59.47497800977298,
2,lepke,szintetizátor,0,1,1,1,,,,,,,,,,,,,,,,,,,,,,,,,139.00057349633425,None,140.01233607623726,None,140.01233607623726,None,,,,,,,,,,,,,,,,,,,,,,,,,,,,,,,,,,,,,,,,,,,,,,,,,,,,,,,,,,,247786,2022_Jun_07_1136,palt,2021.1.2,59.47497800977298,
4,kard,harcsa,0,2,2,3,,,,,,,,,,,,,,,,,,,,,,,,,146.00333834486082,None,147.0216762260534,None,147.0216762260534,None,,,,,,,,,,,,,,,,,,,,,,,,,,,,,,,,,,,,,,,,,,,,,,,,,,,,,,,,,,,247786,2022_Jun_07_1136,palt,2021.1.2,59.47497800977298,
1,sapka,beton,0,3,3,0,,,,,,,,,,,,,,,,,,,,,,,,,153.00144555862062,None,154.01183722168207,None,154.01183722168207,None,,,,,,,,,,,,,,,,,,,,,,,,,,,,,,,,,,,,,,,,,,,,,,,,,,,,,,,,,,,247786,2022_Jun_07_1136,palt,2021.1.2,59.47497800977298,
,,,,,,,,,,,,,,,,,,,,,,,,,,,,,,,,,,,,,159.99959289235994,None,4,15.250462000258267,159.99959289235994,None,,,,,,,,,,,,,,,,,,,,,,,,,,,,,,,,,,,,,,,,,,,,,,,,,,,,,247786,2022_Jun_07_1136,palt,2021.1.2,59.47497800977298,
2,lepke,szintetizátor,,,,,0,0,0,1,,,,,,,,,,,,,,,,,,,,,175.29525690083392,None,,,,,,,,,,,szintetizátor,176.31395212863572,None,4,13.824918220750988,176.31395212863572,None,176.31395212863572,None,176.31395212863572,None, ,190.2247865407262,None,190.2247865407262,None,down,3.0534188020974398,190.2247865407262,None,193.33252948499285,None,4,3.055305056972429,193.33252948499285,None,,,,,,,,,,,,,,,,,,,,,,,,,,,247786,2022_Jun_07_1136,palt,2021.1.2,59.47497800977298,
3,majoránna,szikla,,,,,0,1,1,2,,,,,,,,,,,,,,,,,,,,,196.4545274162665,None,,,,,,,,,,,szikla,197.4857142237015,None,4,8.198000165401027,197.4857142237015,None,197.4857142237015,None,197.4857142237015,None, ,205.71597821218893,None,205.71597821218893,None,down,2.0576481805182993,205.71597821218893,None,207.8174245171249,None,4,3.1041411771439016,207.8174245171249,None,,,,,,,,,,,,,,,,,,,,,,,,,,,247786,2022_Jun_07_1136,palt,2021.1.2,59.47497800977298,
4,kard,harcsa,,,,,0,2,2,3,,,,,,,,,,,,,,,,,,,,,210.95824145688675,None,,,,,,,,,,,harcsa,211.98556027538143,None,4,13.388244759757072,211.98556027538143,None,211.98556027538143,None,211.98556027538143,None, kard,225.41257635992952,None,225.41257635992952,None,down,3.976868263212964,225.41257635992952,None,229.42707393202,None,4,17.232176990015432,229.42707393202,None,,,,,,,,,,,,,,,,,,,,,,,,,,,247786,2022_Jun_07_1136,palt,2021.1.2,59.47497800977298,
1,sapka,beton,,,,,0,3,3,0,,,,,,,,,,,,,,,,,,,,,246.7062987543177,None,,,,,,,,,,,beton,247.7312862672843,None,4,10.520704952301458,247.7312862672843,None,247.7312862672843,None,247.7312862672843,None, ,258.2834797035903,None,258.2834797035903,None,down,1.937578490236774,258.2834797035903,None,260.2502212813124,None,4,40.69139842875302,260.2502212813124,None,,,,,,,,,,,,,,,,,,,,,,,,,,,247786,2022_Jun_07_1136,palt,2021.1.2,59.47497800977298,
,,,,,,,,,,,,,,,,,,,,,,,,,,,,,,,,,,,,,,,,,,,,,,,,,,,,,,,,,,,,,,,,,,,,,300.97133856615983,None,4,23.506997959222645,300.97133856615983,None,,,,,,,,,,,,,,,,,,,,,247786,2022_Jun_07_1136,palt,2021.1.2,59.47497800977298,
2,kötény,tisztás,,,,,,,,,0,0,0,0,0,0,0,1,,,,,,,,,,,,,328.5614776047878,None,329.5327617446892,None,329.5327617446892,None,,,,,,,,,,,,,,,,,,,,,,,,,,,,,,,,,,,,,,,324.5142350825481,None,,,,,,,,,,,,,,,,,,,247786,2022_Jun_07_1136,palt,2021.1.2,59.47497800977298,
9,szilva,kecske,,,,,,,,,0,0,0,0,0,1,1,8,,,,,,,,,,,,,335.51588932657614,None,336.52451602718793,None,336.52451602718793,None,,,,,,,,,,,,,,,,,,,,,,,,,,,,,,,,,,,,,,,,,,,,,,,,,,,,,,,,,,,247786,2022_Jun_07_1136,palt,2021.1.2,59.47497800977298,
8,szalvéta,puska,,,,,,,,,0,0,0,0,0,2,2,7,,,,,,,,,,,,,342.5212971090805,None,343.53077410161495,None,343.53077410161495,None,,,,,,,,,,,,,,,,,,,,,,,,,,,,,,,,,,,,,,,,,,,,,,,,,,,,,,,,,,,247786,2022_Jun_07_1136,palt,2021.1.2,59.47497800977298,
4,mocsár,ananász,,,,,,,,,0,0,0,0,0,3,3,3,,,,,,,,,,,,,349.51787759154104,None,350.52600139472634,None,350.52600139472634,None,,,,,,,,,,,,,,,,,,,,,,,,,,,,,,,,,,,,,,,,,,,,,,,,,,,,,,,,,,,247786,2022_Jun_07_1136,palt,2021.1.2,59.47497800977298,
7,csavarhúzó,hering,,,,,,,,,0,0,0,0,0,4,4,6,,,,,,,,,,,,,356.51719493209384,None,357.53445051051676,None,357.53445051051676,None,,,,,,,,,,,,,,,,,,,,,,,,,,,,,,,,,,,,,,,,,,,,,,,,,,,,,,,,,,,247786,2022_Jun_07_1136,palt,2021.1.2,59.47497800977298,
5,karton,hentes,,,,,,,,,0,0,0,0,0,5,5,4,,,,,,,,,,,,,363.5145551082678,None,364.52157888095826,None,364.52157888095826,None,,,,,,,,,,,,,,,,,,,,,,,,,,,,,,,,,,,,,,,,,,,,,,,,,,,,,,,,,,,247786,2022_Jun_07_1136,palt,2021.1.2,59.47497800977298,
1,bagoly,kirakó,,,,,,,,,0,0,0,0,0,6,6,0,,,,,,,,,,,,,370.51373373996466,None,371.5277352563571,None,371.5277352563571,None,,,,,,,,,,,,,,,,,,,,,,,,,,,,,,,,,,,,,,,,,,,,,,,,,,,,,,,,,,,247786,2022_Jun_07_1136,palt,2021.1.2,59.47497800977298,
6,menta,triatlon,,,,,,,,,0,0,0,0,0,7,7,5,,,,,,,,,,,,,377.51726895174943,None,378.527667457005,None,378.527667457005,None,,,,,,,,,,,,,,,,,,,,,,,,,,,,,,,,,,,,,,,,,,,,,,,,,,,,,,,,,,,247786,2022_Jun_07_1136,palt,2021.1.2,59.47497800977298,
3,fogó,limonádé,,,,,,,,,0,0,0,0,0,8,8,2,,,,,,,,,,,,,384.5160289683845,None,385.5274425991811,None,385.5274425991811,None,,,,,,,,,,,,,,,,,,,,,,,,,,,,,,,,,,,,,,,,,,,,,,,,,,,,,,,,,,,247786,2022_Jun_07_1136,palt,2021.1.2,59.47497800977298,
10,málna,dominó,,,,,,,,,0,0,0,0,0,9,9,9,,,,,,,,,,,,,391.5136373278219,None,392.52590933674946,None,392.52590933674946,None,,,,,,,,,,,,,,,,,,,,,,,,,,,,,,,,,,,,,,,,,,,,,,,,,,,,,,,,,,,247786,2022_Jun_07_1136,palt,2021.1.2,59.47497800977298,
5,karton,hentes,,,,,,,,,0,0,0,0,,,,,0,0,0,4,,,,,,,,,408.7304751621559,None,,,,,,,,,,,hentes,409.72932692593895,None,4,10.472935896134004,409.72932692593895,None,409.72932692593895,None,409.72932692593895,None, karton,420.234784780303,None,420.234784780303,None,down,2.736440268345177,420.234784780303,None,423.02789822383784,None,4,3.764542823424563,423.02789822383784,None,,,,,,,404.7083457997069,None,398.51523310272023,None,u,3.704324795398861,398.51523310272023,None,402.27444060798734,None,4,2.4091618184465915,402.27444060798734,None,,,,,,,247786,2022_Jun_07_1136,palt,2021.1.2,59.47497800977298,
4,mocsár,ananász,,,,,,,,,0,0,0,0,,,,,0,1,1,3,,,,,,,,,426.8224366994109,None,,,,,,,,,,,ananász,427.85148937953636,None,4,10.119489974109456,427.85148937953636,None,427.85148937953636,None,427.85148937953636,None, menta,437.9966174925212,None,437.9966174925212,None,down,4.110274537932128,437.9966174925212,None,442.15170714631677,None,4,8.527232980588451,442.15170714631677,None,,,,,,,,,,,,,,,,,,,,,,,,,,,247786,2022_Jun_07_1136,palt,2021.1.2,59.47497800977298,
9,szilva,kecske,,,,,,,,,0,0,0,0,,,,,0,2,2,8,,,,,,,,,450.71319563617,None,,,,,,,,,,,kecske,451.7325240734499,None,None,,451.7325240734499,None,451.7325240734499,None,451.7325240734499,None, ,466.7386543243192,None,466.7386543243192,None,down,2.2640676053706557,466.7386543243192,None,469.0299897431396,None,4,1.9359248680993915,469.0299897431396,None,,,,,,,,,,,,,,,,,,,,,,,,,,,247786,2022_Jun_07_1136,palt,2021.1.2,59.47497800977298,
2,kötény,tisztás,,,,,,,,,0,0,0,0,,,,,0,3,3,1,,,,,,,,,470.99110365659,None,,,,,,,,,,,tisztás,472.0163449512329,None,4,6.157290025614202,472.0163449512329,None,472.0163449512329,None,472.0163449512329,None, ,478.2148209568113,None,478.2148209568113,None,down,1.9397832159884274,478.2148209568113,None,480.18801156710833,None,4,3.944474128074944,480.18801156710833,None,,,,,,,,,,,,,,,,,,,,,,,,,,,247786,2022_Jun_07_1136,palt,2021.1.2,59.47497800977298,
8,szalvéta,puska,,,,,,,,,0,0,0,0,,,,,0,4,4,7,,,,,,,,,484.1535557694733,None,,,,,,,,,,,puska,485.18430001451634,None,4,12.507952438434586,485.18430001451634,None,485.18430001451634,None,485.18430001451634,None, ,497.7176679109689,None,497.7176679109689,None,down,2.2610408891923726,497.7176679109689,None,500.010673746001,None,4,5.754561067093164,500.010673746001,None,,,,,,,,,,,,,,,,,,,,,,,,,,,247786,2022_Jun_07_1136,palt,2021.1.2,59.47497800977298,
7,csavarhúzó,hering,,,,,,,,,0,0,0,0,,,,,0,5,5,6,,,,,,,,,505.8093414560426,None,,,,,,,,,,,hering,506.8290256848559,None,4,7.851208851439878,506.8290256848559,None,506.8290256848559,None,506.8290256848559,None, ,514.7164764448535,None,514.7164764448535,None,down,1.9337453341577202,514.7164764448535,None,516.6899385638535,None,4,3.182337562786415,516.6899385638535,None,,,,,,,,,,,,,,,,,,,,,,,,,,,247786,2022_Jun_07_1136,palt,2021.1.2,59.47497800977298,
1,bagoly,kirakó,,,,,,,,,0,0,0,0,,,,,0,6,6,0,,,,,,,,,519.9083752830047,None,,,,,,,,,,,kirakó,520.9301905289758,None,4,7.473192476434633,520.9301905289758,None,520.9301905289758,None,520.9301905289758,None, ,528.4434135959018,None,528.4434135959018,None,down,1.8869170725811273,528.4434135959018,None,530.3672288006637,None,4,4.142917167162523,530.3672288006637,None,,,,,,,,,,,,,,,,,,,,,,,,,,,247786,2022_Jun_07_1136,palt,2021.1.2,59.47497800977298,
6,menta,triatlon,,,,,,,,,0,0,0,0,,,,,0,7,7,5,,,,,,,,,534.5494111713488,None,,,,,,,,,,,menta,535.5789711032994,None,4,8.387888035038486,535.5789711032994,None,535.5789711032994,None,535.5789711032994,None, tea,544.0122424631845,None,544.0122424631845,None,down,1.9979433135595173,544.0122424631845,None,546.0456156469882,None,4,5.772141025401652,546.0456156469882,None,,,,,,,,,,,,,,,,,,,,,,,,,,,247786,2022_Jun_07_1136,palt,2021.1.2,59.47497800977298,
3,fogó,limonádé,,,,,,,,,0,0,0,0,,,,,0,8,8,2,,,,,,,,,551.8516887347214,None,,,,,,,,,,,limonádé,552.9304318700451,None,4,9.869303214596584,552.9304318700451,None,552.9304318700451,None,552.9304318700451,None, ,562.8207482446451,None,562.8207482446451,None,down,1.8129062135703862,562.8207482446451,None,564.67231879686,None,4,3.9843495266977698,564.67231879686,None,,,,,,,,,,,,,,,,,,,,,,,,,,,247786,2022_Jun_07_1136,palt,2021.1.2,59.47497800977298,
10,málna,dominó,,,,,,,,,0,0,0,0,,,,,0,9,9,9,,,,,,,,,568.6828476137016,None,,,,,,,,,,,málna,569.7194938305765,None,4,5.143017622409388,569.7194938305765,None,569.7194938305765,None,569.7194938305765,None, ,574.8951155173127,None,574.8951155173127,None,down,1.9627529184799641,574.8951155173127,None,576.8941380234901,None,4,3.1411926357541233,576.8941380234901,None,,,,,,,,,,,,,,,,,,,,,,,,,,,247786,2022_Jun_07_1136,palt,2021.1.2,59.47497800977298,
,,,,,,,,,,,0,0,0,0,,,,,,,,,,,,,,,,,,,,,,,,,,,,,,,,,,,,,,,,,,,,,,,,,,,,,,,,,,,,,,,,,,,,,,,,,,,4,35.44790266477503,580.113149171928,None,580.113149171928,None,247786,2022_Jun_07_1136,palt,2021.1.2,59.47497800977298,
5,karton,hentes,,,,,,,,,1,0,1,0,0,0,0,4,,,,,,,,,,,,,619.6144488684367,None,620.6094146047253,None,620.6094146047253,None,,,,,,,,,,,,,,,,,,,,,,,,,,,,,,,,,,,,,,,615.5898861903697,None,,,,,,,,,,,,,,,,,,,247786,2022_Jun_07_1136,palt,2021.1.2,59.47497800977298,
8,szalvéta,puska,,,,,,,,,1,0,1,0,0,1,1,7,,,,,,,,,,,,,626.5973736739252,None,627.6081568941008,None,627.6081568941008,None,,,,,,,,,,,,,,,,,,,,,,,,,,,,,,,,,,,,,,,,,,,,,,,,,,,,,,,,,,,247786,2022_Jun_07_1136,palt,2021.1.2,59.47497800977298,
3,fogó,limonádé,,,,,,,,,1,0,1,0,0,2,2,2,,,,,,,,,,,,,633.5879479972646,None,634.6089418746997,None,634.6089418746997,None,,,,,,,,,,,,,,,,,,,,,,,,,,,,,,,,,,,,,,,,,,,,,,,,,,,,,,,,,,,247786,2022_Jun_07_1136,palt,2021.1.2,59.47497800977298,
7,csavarhúzó,hering,,,,,,,,,1,0,1,0,0,3,3,6,,,,,,,,,,,,,640.5976909005549,None,641.6155084678903,None,641.6155084678903,None,,,,,,,,,,,,,,,,,,,,,,,,,,,,,,,,,,,,,,,,,,,,,,,,,,,,,,,,,,,247786,2022_Jun_07_1136,palt,2021.1.2,59.47497800977298,
6,menta,triatlon,,,,,,,,,1,0,1,0,0,4,4,5,,,,,,,,,,,,,647.5979571221396,None,648.6037919167429,None,648.6037919167429,None,,,,,,,,,,,,,,,,,,,,,,,,,,,,,,,,,,,,,,,,,,,,,,,,,,,,,,,,,,,247786,2022_Jun_07_1136,palt,2021.1.2,59.47497800977298,
10,málna,dominó,,,,,,,,,1,0,1,0,0,5,5,9,,,,,,,,,,,,,654.5953499539755,None,655.6088840276934,None,655.6088840276934,None,,,,,,,,,,,,,,,,,,,,,,,,,,,,,,,,,,,,,,,,,,,,,,,,,,,,,,,,,,,247786,2022_Jun_07_1136,palt,2021.1.2,59.47497800977298,
4,mocsár,ananász,,,,,,,,,1,0,1,0,0,6,6,3,,,,,,,,,,,,,661.5960285703186,None,662.6074390909635,None,662.6074390909635,None,,,,,,,,,,,,,,,,,,,,,,,,,,,,,,,,,,,,,,,,,,,,,,,,,,,,,,,,,,,247786,2022_Jun_07_1136,palt,2021.1.2,59.47497800977298,
9,szilva,kecske,,,,,,,,,1,0,1,0,0,7,7,8,,,,,,,,,,,,,668.5959887616336,None,669.6093738628551,None,669.6093738628551,None,,,,,,,,,,,,,,,,,,,,,,,,,,,,,,,,,,,,,,,,,,,,,,,,,,,,,,,,,,,247786,2022_Jun_07_1136,palt,2021.1.2,59.47497800977298,
2,kötény,tisztás,,,,,,,,,1,0,1,0,0,8,8,1,,,,,,,,,,,,,675.597447382519,None,676.6152565525845,None,676.6152565525845,None,,,,,,,,,,,,,,,,,,,,,,,,,,,,,,,,,,,,,,,,,,,,,,,,,,,,,,,,,,,247786,2022_Jun_07_1136,palt,2021.1.2,59.47497800977298,
1,bagoly,kirakó,,,,,,,,,1,0,1,0,0,9,9,0,,,,,,,,,,,,,682.5967205599882,None,683.6142815467902,None,683.6142815467902,None,,,,,,,,,,,,,,,,,,,,,,,,,,,,,,,,,,,,,,,,,,,,,,,,,,,,,,,,,,,247786,2022_Jun_07_1136,palt,2021.1.2,59.47497800977298,
10,málna,dominó,,,,,,,,,1,0,1,0,,,,,0,0,0,9,,,,,,,,,699.0242833942175,None,,,,,,,,,,,málna,700.0128943331074,None,4,8.354140088660643,700.0128943331074,None,700.0128943331074,None,700.0128943331074,None, ,708.4030608024914,None,708.4030608024914,None,down,3.460838050581515,708.4030608024914,None,711.9054334717803,None,4,7.261346297571436,711.9054334717803,None,,,,,,,695.0032095881179,None,689.5948355491273,None,u,1.7257711875718087,689.5948355491273,None,691.3504801632371,None,4,3.6175505369901657,691.3504801632371,None,,,,,,,247786,2022_Jun_07_1136,palt,2021.1.2,59.47497800977298,
1,bagoly,kirakó,,,,,,,,,1,0,1,0,,,,,0,1,1,0,,,,,,,,,719.2015017885715,None,,,,,,,,,,,kirakó,720.2251709448174,None,4,6.199636682169512,720.2251709448174,None,720.2251709448174,None,720.2251709448174,None, ,726.4567644866183,None,726.4567644866183,None,down,1.8230073964223266,726.4567644866183,None,728.3126480781939,None,4,1.6651280135847628,728.3126480781939,None,,,,,,,,,,,,,,,,,,,,,,,,,,,247786,2022_Jun_07_1136,palt,2021.1.2,59.47497800977298,
9,szilva,kecske,,,,,,,,,1,0,1,0,,,,,0,2,2,8,,,,,,,,,730.0032823635265,None,,,,,,,,,,,kecske,731.0320523388218,None,4,11.510544367367402,731.0320523388218,None,731.0320523388218,None,731.0320523388218,None, szalvéta,742.566127775237,None,742.566127775237,None,down,3.4094180879183114,742.566127775237,None,746.0035501401871,None,4,4.175939224427566,746.0035501401871,None,,,,,,,,,,,,,,,,,,,,,,,,,,,247786,2022_Jun_07_1136,palt,2021.1.2,59.47497800977298,
3,fogó,limonádé,,,,,,,,,1,0,1,0,,,,,0,3,3,2,,,,,,,,,750.2015798513312,None,,,,,,,,,,,limonádé,751.229717239039,None,4,5.031777719734237,751.229717239039,None,751.229717239039,None,751.229717239039,None, ,756.2993814700749,None,756.2993814700749,None,down,1.884155334206298,756.2993814700749,None,758.2091764982324,None,4,4.395469442708418,758.2091764982324,None,,,,,,,,,,,,,,,,,,,,,,,,,,,247786,2022_Jun_07_1136,palt,2021.1.2,59.47497800977298,
4,mocsár,ananász,,,,,,,,,1,0,1,0,,,,,0,4,4,3,,,,,,,,,762.6350617627613,None,,,,,,,,,,,ananász,763.6624160360079,None,4,4.792775379261002,763.6624160360079,None,763.6624160360079,None,763.6624160360079,None, málna,768.4964106730185,None,768.4964106730185,None,down,3.0629225412849337,768.4964106730185,None,771.5870358149987,None,4,4.864366918103769,771.5870358149987,None,,,,,,,,,,,,,,,,,,,,,,,,,,,247786,2022_Jun_07_1136,palt,2021.1.2,59.47497800977298,
7,csavarhúzó,hering,,,,,,,,,1,0,1,0,,,,,0,5,5,6,,,,,,,,,776.4803406517021,None,,,,,,,,,,,hering,777.4971340743359,None,4,9.786962044192478,777.4971340743359,None,777.4971340743359,None,777.4971340743359,None, ,787.3194964430295,None,787.3194964430295,None,down,1.9516748636960983,787.3194964430295,None,789.2982596694492,None,4,2.7767899518366903,789.2982596694492,None,,,,,,,,,,,,,,,,,,,,,,,,,,,247786,2022_Jun_07_1136,palt,2021.1.2,59.47497800977298,
2,kötény,tisztás,,,,,,,,,1,0,1,0,,,,,0,6,6,1,,,,,,,,,792.1037011027802,None,,,,,,,,,,,tisztás,793.1236916731577,None,4,7.553258944535628,793.1236916731577,None,793.1236916731577,None,793.1236916731577,None, ,800.7105402620509,None,800.7105402620509,None,down,2.3842806697357446,800.7105402620509,None,803.1400994474534,None,4,2.2087497969623655,803.1400994474534,None,,,,,,,,,,,,,,,,,,,,,,,,,,,247786,2022_Jun_07_1136,palt,2021.1.2,59.47497800977298,
8,szalvéta,puska,,,,,,,,,1,0,1,0,,,,,0,7,7,7,,,,,,,,,805.3908447748981,None,,,,,,,,,,,puska,806.4098214637488,None,4,5.342332412488759,806.4098214637488,None,806.4098214637488,None,806.4098214637488,None, ,811.7841751142405,None,811.7841751142405,None,down,2.142984655452892,811.7841751142405,None,813.964209362166,None,4,3.8566853664815426,813.964209362166,None,,,,,,,,,,,,,,,,,,,,,,,,,,,247786,2022_Jun_07_1136,palt,2021.1.2,59.47497800977298,
6,menta,triatlon,,,,,,,,,1,0,1,0,,,,,0,8,8,5,,,,,,,,,817.8560916548595,None,,,,,,,,,,,menta,818.8739173084032,None,4,4.845019820379093,818.8739173084032,None,818.8739173084032,None,818.8739173084032,None, ,823.7495513730682,None,823.7495513730682,None,down,2.081152814440429,823.7495513730682,None,825.8697849640157,None,4,1.522028285311535,825.8697849640157,None,,,,,,,,,,,,,,,,,,,,,,,,,,,247786,2022_Jun_07_1136,palt,2021.1.2,59.47497800977298,
5,karton,hentes,,,,,,,,,1,0,1,0,,,,,0,9,9,4,,,,,,,,,827.4129315295722,None,,,,,,,,,,,hentes,828.432958798483,None,4,6.2146365297958255,828.432958798483,None,828.432958798483,None,828.432958798483,None, karton,834.6940684202127,None,834.6940684202127,None,down,3.3124975508544594,834.6940684202127,None,838.0537553112954,None,4,3.265851850155741,838.0537553112954,None,,,,,,,,,,,,,,,,,,,,,,,,,,,247786,2022_Jun_07_1136,palt,2021.1.2,59.47497800977298,
,,,,,,,,,,,1,0,1,0,,,,,,,,,,,,,,,,,,,,,,,,,,,,,,,,,,,,,,,,,,,,,,,,,,,,,,,,,,,,,,,,,,,,,,,,,,,4,54.846095903310925,841.3498233172577,None,841.3498233172577,None,247786,2022_Jun_07_1136,palt,2021.1.2,59.47497800977298,
9,szilva,kecske,,,,,,,,,2,0,2,0,0,0,0,8,,,,,,,,,,,,,900.266546949977,None,901.2530054121744,None,901.2530054121744,None,,,,,,,,,,,,,,,,,,,,,,,,,,,,,,,,,,,,,,,896.2312175349798,None,,,,,,,,,,,,,,,,,,,247786,2022_Jun_07_1136,palt,2021.1.2,59.47497800977298,
5,karton,hentes,,,,,,,,,2,0,2,0,0,1,1,4,,,,,,,,,,,,,907.2412820190657,None,908.2496944360901,None,908.2496944360901,None,,,,,,,,,,,,,,,,,,,,,,,,,,,,,,,,,,,,,,,,,,,,,,,,,,,,,,,,,,,247786,2022_Jun_07_1136,palt,2021.1.2,59.47497800977298,
7,csavarhúzó,hering,,,,,,,,,2,0,2,0,0,2,2,6,,,,,,,,,,,,,914.2383184372447,None,915.2627853252925,None,915.2627853252925,None,,,,,,,,,,,,,,,,,,,,,,,,,,,,,,,,,,,,,,,,,,,,,,,,,,,,,,,,,,,247786,2022_Jun_07_1136,palt,2021.1.2,59.47497800977298,
3,fogó,limonádé,,,,,,,,,2,0,2,0,0,3,3,2,,,,,,,,,,,,,921.2423692978919,None,922.2489595275838,None,922.2489595275838,None,,,,,,,,,,,,,,,,,,,,,,,,,,,,,,,,,,,,,,,,,,,,,,,,,,,,,,,,,,,247786,2022_Jun_07_1136,palt,2021.1.2,59.47497800977298,
6,menta,triatlon,,,,,,,,,2,0,2,0,0,4,4,5,,,,,,,,,,,,,928.2367263946217,None,929.2612408665009,None,929.2612408665009,None,,,,,,,,,,,,,,,,,,,,,,,,,,,,,,,,,,,,,,,,,,,,,,,,,,,,,,,,,,,247786,2022_Jun_07_1136,palt,2021.1.2,59.47497800977298,
1,bagoly,kirakó,,,,,,,,,2,0,2,0,0,5,5,0,,,,,,,,,,,,,935.2434711942915,None,936.2563465558924,None,936.2563465558924,None,,,,,,,,,,,,,,,,,,,,,,,,,,,,,,,,,,,,,,,,,,,,,,,,,,,,,,,,,,,247786,2022_Jun_07_1136,palt,2021.1.2,59.47497800977298,
8,szalvéta,puska,,,,,,,,,2,0,2,0,0,6,6,7,,,,,,,,,,,,,942.2404880190734,None,943.2472601875197,None,943.2472601875197,None,,,,,,,,,,,,,,,,,,,,,,,,,,,,,,,,,,,,,,,,,,,,,,,,,,,,,,,,,,,247786,2022_Jun_07_1136,palt,2021.1.2,59.47497800977298,
10,málna,dominó,,,,,,,,,2,0,2,0,0,7,7,9,,,,,,,,,,,,,949.2429228897672,None,950.2552630091086,None,950.2552630091086,None,,,,,,,,,,,,,,,,,,,,,,,,,,,,,,,,,,,,,,,,,,,,,,,,,,,,,,,,,,,247786,2022_Jun_07_1136,palt,2021.1.2,59.47497800977298,
2,kötény,tisztás,,,,,,,,,2,0,2,0,0,8,8,1,,,,,,,,,,,,,956.2338464735076,None,957.2436462910846,None,957.2436462910846,None,,,,,,,,,,,,,,,,,,,,,,,,,,,,,,,,,,,,,,,,,,,,,,,,,,,,,,,,,,,247786,2022_Jun_07_1136,palt,2021.1.2,59.47497800977298,
4,mocsár,ananász,,,,,,,,,2,0,2,0,0,9,9,3,,,,,,,,,,,,,963.2429306649137,None,964.2540681217797,None,964.2540681217797,None,,,,,,,,,,,,,,,,,,,,,,,,,,,,,,,,,,,,,,,,,,,,,,,,,,,,,,,,,,,247786,2022_Jun_07_1136,palt,2021.1.2,59.47497800977298,
4,mocsár,ananász,,,,,,,,,2,0,2,0,,,,,0,0,0,3,,,,,,,,,977.5036443751305,None,,,,,,,,,,,ananász,978.500384404324,None,4,5.889559695729986,978.500384404324,None,978.500384404324,None,978.500384404324,None, mocsár,984.4197882916778,None,984.4197882916778,None,down,3.4091848330572248,984.4197882916778,None,987.8657303710934,None,4,1.5800745545420796,987.8657303710934,None,,,,,,,973.4906262615696,None,970.242933152942,None,u,1.442364570684731,970.242933152942,None,971.7136350886431,None,4,1.7356412925291806,971.7136350886431,None,,,,,,,247786,2022_Jun_07_1136,palt,2021.1.2,59.47497800977298,
8,szalvéta,puska,,,,,,,,,2,0,2,0,,,,,0,1,1,7,,,,,,,,,989.4874129416421,None,,,,,,,,,,,puska,990.5066359476186,None,4,3.6741462713107467,990.5066359476186,None,990.5066359476186,None,990.5066359476186,None, szalvéta,994.214322413085,None,994.214322413085,None,down,5.150265941629186,994.214322413085,None,999.3994699204341,None,4,1.8752975554671139,999.3994699204341,None,,,,,,,,,,,,,,,,,,,,,,,,,,,247786,2022_Jun_07_1136,palt,2021.1.2,59.47497800977298,
10,málna,dominó,,,,,,,,,2,0,2,0,,,,,0,2,2,9,,,,,,,,,1001.2952155370731,None,,,,,,,,,,,málna,1002.3156250331085,None,4,4.742927865823731,1002.3156250331085,None,1002.3156250331085,None,1002.3156250331085,None, dominó,1007.1065486790612,None,1007.1065486790612,None,down,3.681963421870023,1007.1065486790612,None,1010.8301950695459,None,4,1.2283730686176568,1010.8301950695459,None,,,,,,,,,,,,,,,,,,,,,,,,,,,247786,2022_Jun_07_1136,palt,2021.1.2,59.47497800977298,
7,csavarhúzó,hering,,,,,,,,,2,0,2,0,,,,,0,3,3,6,,,,,,,,,1012.1053012316115,None,,,,,,,,,,,hering,1013.1232562640216,None,4,5.248220886802301,1013.1232562640216,None,1013.1232562640216,None,1013.1232562640216,None, csavarhúzó,1018.3988407540601,None,1018.3988407540601,None,down,3.4615032938309014,1018.3988407540601,None,1021.8860384791624,None,4,1.9646783601492643,1021.8860384791624,None,,,,,,,,,,,,,,,,,,,,,,,,,,,247786,2022_Jun_07_1136,palt,2021.1.2,59.47497800977298,
2,kötény,tisztás,,,,,,,,,2,0,2,0,,,,,0,4,4,1,,,,,,,,,1023.8866766644642,None,,,,,,,,,,,tisztás,1024.889900558861,None,4,5.385468403808773,1024.889900558861,None,1024.889900558861,None,1024.889900558861,None, kötény,1030.3043911643326,None,1030.3043911643326,None,down,2.8518178025260568,1030.3043911643326,None,1033.1965965928975,None,4,1.8776605834718794,1033.1965965928975,None,,,,,,,,,,,,,,,,,,,,,,,,,,,247786,2022_Jun_07_1136,palt,2021.1.2,59.47497800977298,
6,menta,triatlon,,,,,,,,,2,0,2,0,,,,,0,5,5,5,,,,,,,,,1035.1018723840825,None,,,,,,,,,,,menta,1036.1212229027878,None,4,3.185918803559616,1036.1212229027878,None,1036.1212229027878,None,1036.1212229027878,None, triatlon,1039.34524032427,None,1039.34524032427,None,down,4.1952446470968425,1039.34524032427,None,1043.5607031984255,None,4,1.6864658643025905,1043.5607031984255,None,,,,,,,,,,,,,,,,,,,,,,,,,,,247786,2022_Jun_07_1136,palt,2021.1.2,59.47497800977298,
9,szilva,kecske,,,,,,,,,2,0,2,0,,,,,0,6,6,8,,,,,,,,,1045.2776396218687,None,,,,,,,,,,,kecske,1046.3034525464755,None,4,5.330662823515013,1046.3034525464755,None,1046.3034525464755,None,1046.3034525464755,None, szilva,1051.6662174696103,None,1051.6662174696103,None,down,3.4258880636189133,1051.6662174696103,None,1055.1191861208063,None,4,1.152871866011992,1055.1191861208063,None,,,,,,,,,,,,,,,,,,,,,,,,,,,247786,2022_Jun_07_1136,palt,2021.1.2,59.47497800977298,
1,bagoly,kirakó,,,,,,,,,2,0,2,0,,,,,0,7,7,0,,,,,,,,,1056.3088537978474,None,,,,,,,,,,,kirakó,1057.3390270345844,None,4,9.791851067682728,1057.3390270345844,None,1057.3390270345844,None,1057.3390270345844,None, ,1067.1858687316999,None,1067.1858687316999,None,down,1.8261127972509712,1067.1858687316999,None,1069.06564540416,None,4,1.4581761453300714,1069.06564540416,None,,,,,,,,,,,,,,,,,,,,,,,,,,,247786,2022_Jun_07_1136,palt,2021.1.2,59.47497800977298,
5,karton,hentes,,,,,,,,,2,0,2,0,,,,,0,8,8,4,,,,,,,,,1070.5508016818203,None,,,,,,,,,,,hentes,1071.576569510391,None,4,4.234296810813248,1071.576569510391,None,1071.576569510391,None,1071.576569510391,None, karton,1075.8507712653372,None,1075.8507712653372,None,down,3.6091063970234245,1075.8507712653372,None,1079.5094536673278,None,4,1.2833580998703837,1079.5094536673278,None,,,,,,,,,,,,,,,,,,,,,,,,,,,247786,2022_Jun_07_1136,palt,2021.1.2,59.47497800977298,
3,fogó,limonádé,,,,,,,,,2,0,2,0,,,,,0,9,9,2,,,,,,,,,1080.8277166581247,None,,,,,,,,,,,limonádé,1081.8330920960288,None,4,5.083663570461795,1081.8330920960288,None,1081.8330920960288,None,1081.8330920960288,None, fogó,1086.948868029518,None,1086.948868029518,None,down,2.12687949067913,1086.948868029518,None,1089.1046975678764,None,4,1.2048544397111982,1089.1046975678764,None,,,,,,,,,,,,,,,,,,,,,,,,,,,247786,2022_Jun_07_1136,palt,2021.1.2,59.47497800977298,
,,,,,,,,,,,2,0,2,0,,,,,,,,,,,,,,,,,,,,,,,,,,,,,,,,,,,,,,,,,,,,,,,,,,,,,,,,,,,,,,,,,,,,,,,,,,,4,43.193369277287275,1090.361853984883,None,1090.361853984883,None,247786,2022_Jun_07_1136,palt,2021.1.2,59.47497800977298,
1,bagoly,kirakó,,,,,,,,,3,0,3,0,0,0,0,0,,,,,,,,,,,,,1137.6101125036366,None,1138.5949049035553,None,1138.5949049035553,None,,,,,,,,,,,,,,,,,,,,,,,,,,,,,,,,,,,,,,,1133.5864539216273,None,,,,,,,,,,,,,,,,,,,247786,2022_Jun_07_1136,palt,2021.1.2,59.47497800977298,
3,fogó,limonádé,,,,,,,,,3,0,3,0,0,1,1,2,,,,,,,,,,,,,1144.590693252394,None,1145.6013788166456,None,1145.6013788166456,None,,,,,,,,,,,,,,,,,,,,,,,,,,,,,,,,,,,,,,,,,,,,,,,,,,,,,,,,,,,247786,2022_Jun_07_1136,palt,2021.1.2,59.47497800977298,
2,kötény,tisztás,,,,,,,,,3,0,3,0,0,2,2,1,,,,,,,,,,,,,1151.585760066053,None,1152.5884496509098,None,1152.5884496509098,None,,,,,,,,,,,,,,,,,,,,,,,,,,,,,,,,,,,,,,,,,,,,,,,,,,,,,,,,,,,247786,2022_Jun_07_1136,palt,2021.1.2,59.47497800977298,
10,málna,dominó,,,,,,,,,3,0,3,0,0,3,3,9,,,,,,,,,,,,,1158.5930363759398,None,1159.6030644723214,None,1159.6030644723214,None,,,,,,,,,,,,,,,,,,,,,,,,,,,,,,,,,,,,,,,,,,,,,,,,,,,,,,,,,,,247786,2022_Jun_07_1136,palt,2021.1.2,59.47497800977298,
5,karton,hentes,,,,,,,,,3,0,3,0,0,4,4,4,,,,,,,,,,,,,1165.5881940035615,None,1166.6031179653946,None,1166.6031179653946,None,,,,,,,,,,,,,,,,,,,,,,,,,,,,,,,,,,,,,,,,,,,,,,,,,,,,,,,,,,,247786,2022_Jun_07_1136,palt,2021.1.2,59.47497800977298,
7,csavarhúzó,hering,,,,,,,,,3,0,3,0,0,5,5,6,,,,,,,,,,,,,1172.5879343131091,None,1173.5933324543294,None,1173.5933324543294,None,,,,,,,,,,,,,,,,,,,,,,,,,,,,,,,,,,,,,,,,,,,,,,,,,,,,,,,,,,,247786,2022_Jun_07_1136,palt,2021.1.2,59.47497800977298,
6,menta,triatlon,,,,,,,,,3,0,3,0,0,6,6,5,,,,,,,,,,,,,1179.5881146967877,None,1180.6031901189126,None,1180.6031901189126,None,,,,,,,,,,,,,,,,,,,,,,,,,,,,,,,,,,,,,,,,,,,,,,,,,,,,,,,,,,,247786,2022_Jun_07_1136,palt,2021.1.2,59.47497800977298,
9,szilva,kecske,,,,,,,,,3,0,3,0,0,7,7,8,,,,,,,,,,,,,1186.5905060265213,None,1187.6015853250865,None,1187.6015853250865,None,,,,,,,,,,,,,,,,,,,,,,,,,,,,,,,,,,,,,,,,,,,,,,,,,,,,,,,,,,,247786,2022_Jun_07_1136,palt,2021.1.2,59.47497800977298,
4,mocsár,ananász,,,,,,,,,3,0,3,0,0,8,8,3,,,,,,,,,,,,,1193.5914754339028,None,1194.6100571444258,None,1194.6100571444258,None,,,,,,,,,,,,,,,,,,,,,,,,,,,,,,,,,,,,,,,,,,,,,,,,,,,,,,,,,,,247786,2022_Jun_07_1136,palt,2021.1.2,59.47497800977298,
8,szalvéta,puska,,,,,,,,,3,0,3,0,0,9,9,7,,,,,,,,,,,,,1200.5877769435756,None,1201.5997939270455,None,1201.5997939270455,None,,,,,,,,,,,,,,,,,,,,,,,,,,,,,,,,,,,,,,,,,,,,,,,,,,,,,,,,,,,247786,2022_Jun_07_1136,palt,2021.1.2,59.47497800977298,
8,szalvéta,puska,,,,,,,,,3,0,3,0,,,,,0,0,0,7,,,,,,,,,1215.0787692598533,None,,,,,,,,,,,puska,1216.071933335159,None,4,2.6456157714128494,1216.071933335159,None,1216.071933335159,None,1216.071933335159,None, szalvéta,1218.7560461235698,None,1218.7560461235698,None,down,4.062123254407197,1218.7560461235698,None,1222.8393402183428,None,4,1.3387160280253738,1222.8393402183428,None,,,,,,,1211.057399686426,None,1207.5878562503494,None,u,1.5668754349462688,1207.5878562503494,None,1209.192529559601,None,4,1.834825957659632,1209.192529559601,None,,,,,,,247786,2022_Jun_07_1136,palt,2021.1.2,59.47497800977298,
9,szilva,kecske,,,,,,,,,3,0,3,0,,,,,0,1,1,8,,,,,,,,,1224.209944684524,None,,,,,,,,,,,kecske,1225.2309615765698,None,4,3.4900446790270507,1225.2309615765698,None,1225.2309615765698,None,1225.2309615765698,None, szilva,1228.764696149854,None,1228.764696149854,None,down,2.533415480516851,1228.764696149854,None,1231.3241696280893,None,4,1.0708286396693438,1231.3241696280893,None,,,,,,,,,,,,,,,,,,,,,,,,,,,247786,2022_Jun_07_1136,palt,2021.1.2,59.47497800977298,
4,mocsár,ananász,,,,,,,,,3,0,3,0,,,,,0,2,2,3,,,,,,,,,1232.433288154425,None,,,,,,,,,,,ananász,1233.456994009437,None,4,3.7283223746344447,1233.456994009437,None,1233.456994009437,None,1233.456994009437,None, mocsár,1237.20982743497,None,1237.20982743497,None,down,3.36804332700558,1237.20982743497,None,1240.6162635919172,None,4,0.9097545971162617,1240.6162635919172,None,,,,,,,,,,,,,,,,,,,,,,,,,,,247786,2022_Jun_07_1136,palt,2021.1.2,59.47497800977298,
1,bagoly,kirakó,,,,,,,,,3,0,3,0,,,,,0,3,3,0,,,,,,,,,1241.5678013016004,None,,,,,,,,,,,kirakó,1242.5859081051312,None,4,14.726925643859431,1242.5859081051312,None,1242.5859081051312,None,1242.5859081051312,None, ,1257.360319789499,None,1257.360319789499,None,down,1.8733562524430454,1257.360319789499,None,1259.2827603451442,None,4,3.471213852521032,1259.2827603451442,None,,,,,,,,,,,,,,,,,,,,,,,,,,,247786,2022_Jun_07_1136,palt,2021.1.2,59.47497800977298,
7,csavarhúzó,hering,,,,,,,,,3,0,3,0,,,,,0,4,4,6,,,,,,,,,1262.7878431258723,None,,,,,,,,,,,hering,1263.805962991435,None,4,6.024919713847339,1263.805962991435,None,1263.805962991435,None,1263.805962991435,None, csavarhúzó,1269.8716761949472,None,1269.8716761949472,None,down,3.8578189853578806,1269.8716761949472,None,1273.7761881540064,None,4,0.8385113857220858,1273.7761881540064,None,,,,,,,,,,,,,,,,,,,,,,,,,,,247786,2022_Jun_07_1136,palt,2021.1.2,59.47497800977298,
10,málna,dominó,,,,,,,,,3,0,3,0,,,,,0,5,5,9,,,,,,,,,1274.6421489808708,None,,,,,,,,,,,málna,1275.661048540147,None,4,7.6015389850363135,1275.661048540147,None,1275.661048540147,None,1275.661048540147,None, dominó,1283.2899386882782,None,1283.2899386882782,None,down,3.159597694175318,1283.2899386882782,None,1286.4863779116422,None,4,0.8043186995200813,1286.4863779116422,None,,,,,,,,,,,,,,,,,,,,,,,,,,,247786,2022_Jun_07_1136,palt,2021.1.2,59.47497800977298,
3,fogó,limonádé,,,,,,,,,3,0,3,0,,,,,0,6,6,2,,,,,,,,,1287.3309411744121,None,,,,,,,,,,,limonádé,1288.3543836066965,None,4,4.088019528659061,1288.3543836066965,None,1288.3543836066965,None,1288.3543836066965,None, fogó,1292.4753216274548,None,1292.4753216274548,None,down,2.166159000247717,1292.4753216274548,None,1294.6891719326377,None,4,0.9270929032936692,1294.6891719326377,None,,,,,,,,,,,,,,,,,,,,,,,,,,,247786,2022_Jun_07_1136,palt,2021.1.2,59.47497800977298,
5,karton,hentes,,,,,,,,,3,0,3,0,,,,,0,7,7,4,,,,,,,,,1295.655948343221,None,,,,,,,,,,,hentes,1296.6735074638855,None,4,2.053690932923928,1296.6735074638855,None,1296.6735074638855,None,1296.6735074638855,None, karton,1298.754938629223,None,1298.754938629223,None,down,3.390541232423857,1298.754938629223,None,1302.1732340890449,None,4,0.7769672253634781,1302.1732340890449,None,,,,,,,,,,,,,,,,,,,,,,,,,,,247786,2022_Jun_07_1136,palt,2021.1.2,59.47497800977298,
2,kötény,tisztás,,,,,,,,,3,0,3,0,,,,,0,8,8,1,,,,,,,,,1302.9904101120774,None,,,,,,,,,,,tisztás,1304.00787810795,None,4,3.282637186581269,1304.00787810795,None,1304.00787810795,None,1304.00787810795,None, kötény,1307.3301477965433,None,1307.3301477965433,None,down,3.503337411675602,1307.3301477965433,None,1310.8702377895825,None,4,0.8119536004960537,1310.8702377895825,None,,,,,,,,,,,,,,,,,,,,,,,,,,,247786,2022_Jun_07_1136,palt,2021.1.2,59.47497800977298,
6,menta,triatlon,,,,,,,,,3,0,3,0,,,,,0,9,9,5,,,,,,,,,1311.7077368486207,None,,,,,,,,,,,menta,1312.7295284580905,None,4,6.765851228265092,1312.7295284580905,None,1312.7295284580905,None,1312.7295284580905,None, triatlon,1319.528828444425,None,1319.528828444425,None,down,3.3681117484811693,1319.528828444425,None,1322.9352658453863,None,4,0.8330765457358211,1322.9352658453863,None,,,,,,,,,,,,,,,,,,,,,,,,,,,247786,2022_Jun_07_1136,palt,2021.1.2,59.47497800977298,
